accel_time_list,accel_x_list,accel_y_list,accel_z_list
0.016000,0.356736,-2.408567,10.831368
0.036000,-0.208296,-2.730587,10.542868
0.056000,0.049111,-2.952229,10.336554
0.076000,0.102100,-3.113346,10.145149
0.096000,-0.151453,-3.170351,9.954912
0.116000,-0.269031,-3.042215,9.841129
0.136000,-0.256998,-2.932717,9.802191
0.156000,-0.283488,-2.836075,9.859625
0.176000,-0.307005,-2.765455,9.952415
0.196000,-0.279091,-2.718098,10.036673
0.216000,-0.255845,-2.707034,10.100117
0.236000,-0.228961,-2.715733,10.136226
0.256000,-0.178341,-2.725527,10.153699
0.276000,-0.111816,-2.738111,10.154772
0.296000,-0.026959,-2.751124,10.147764
0.316000,0.049254,-2.768638,10.161154
0.336000,0.101448,-2.791900,10.172067
0.356000,0.155257,-2.835203,10.181607
0.376000,0.195585,-2.911460,10.187129
0.396000,0.215354,-3.019485,10.211746
0.416000,0.235497,-3.097255,10.235584
0.436000,0.249910,-3.128168,10.263391
0.456000,0.262464,-3.155112,10.285141
0.476000,0.276707,-3.176942,10.268035
0.496000,0.263009,-3.177262,10.270173
0.516000,0.243887,-3.178055,10.281686
0.536000,0.229623,-3.170148,10.294382
0.556000,0.217139,-3.147677,10.299883
0.576000,0.201104,-3.136871,10.297369
0.596000,0.189675,-3.146027,10.288837
0.616000,0.178006,-3.149542,10.281754
0.636000,0.154982,-3.128288,10.282742
0.656000,0.127967,-3.107826,10.288306
0.676000,0.106911,-3.104597,10.291543
0.696000,0.090998,-3.098661,10.297673
0.716000,0.075609,-3.078820,10.307645
0.736000,0.060559,-3.056343,10.312662
0.756000,0.046931,-3.045995,10.312639
0.776000,0.034893,-3.053267,10.310167
0.796000,0.024991,-3.064502,10.311782
0.816000,0.016171,-3.056916,10.320484
0.836000,0.008041,-3.049016,10.331717
0.856000,0.008266,-3.055123,10.335576
0.876000,0.013774,-3.066636,10.333743
0.896000,0.019729,-3.077695,10.332612
0.916000,0.025815,-3.084698,10.335483
0.936000,0.032588,-3.098334,10.336349
0.956000,0.036308,-3.121511,10.332185
0.976000,0.041054,-3.139922,10.334219
0.996000,0.045230,-3.154362,10.335867
1.016000,0.051932,-3.158745,10.334282
1.036000,0.058420,-3.153468,10.332323
1.056000,0.060952,-3.155556,10.329299
1.076000,0.059604,-3.164569,10.323631
1.096000,0.056674,-3.173939,10.318762
1.116000,0.051917,-3.179142,10.314968
1.136000,0.046219,-3.179101,10.312998
1.156000,0.040264,-3.176914,10.313894
1.176000,0.032671,-3.177560,10.317078
1.196000,0.023644,-3.173904,10.316647
1.216000,0.013678,-3.167145,10.315026
1.236000,0.002677,-3.165189,10.316933
1.256000,-0.007956,-3.169306,10.325535
1.276000,-0.014482,-3.167796,10.334929
1.296000,-0.018516,-3.162433,10.344698
1.316000,-0.017707,-3.157851,10.349964
1.336000,-0.015473,-3.164192,10.347968
1.356000,-0.010452,-3.177838,10.342473
1.376000,-0.003855,-3.187393,10.336720
1.396000,0.002555,-3.192584,10.328424
1.416000,0.005726,-3.208435,10.324106
1.436000,0.016195,-3.218028,10.318316
1.456000,0.023381,-3.222205,10.314787
1.476000,0.027753,-3.215684,10.316650
1.496000,0.030214,-3.205555,10.321981
1.516000,0.031273,-3.200339,10.324386
1.536000,0.031377,-3.207289,10.323254
1.556000,0.031548,-3.218628,10.318794
1.576000,0.031611,-3.223721,10.314810
1.596000,0.029156,-3.221057,10.314671
1.616000,0.025287,-3.219965,10.316578
1.636000,0.021714,-3.222546,10.316995
1.656000,0.015602,-3.221019,10.318444
1.676000,0.008912,-3.217289,10.320702
1.696000,0.004242,-3.215640,10.321854
1.716000,0.001693,-3.217370,10.321360
1.736000,0.001418,-3.222773,10.319581
1.756000,0.001400,-3.223955,10.320409
1.776000,0.001166,-3.221945,10.322721
1.796000,0.004191,-3.229110,10.323404
1.816000,0.010127,-3.243358,10.320930
1.836000,0.017406,-3.254953,10.319307
1.856000,0.026268,-3.264134,10.319502
1.876000,0.035302,-3.278917,10.319412
1.896000,0.044857,-3.295645,10.317060
1.916000,0.050569,-3.306404,10.317575
1.936000,0.057970,-3.314230,10.319919
1.956000,0.065210,-3.317866,10.326449
1.976000,0.070512,-3.310804,10.327247
1.996000,0.074316,-3.305760,10.319687
2.053000,0.070531,-3.309501,10.316078
2.073000,0.066374,-3.307232,10.313658
2.093000,0.062715,-3.301790,10.310637
2.113000,0.056898,-3.298299,10.309444
2.133000,0.051403,-3.297309,10.311783
2.153000,0.047447,-3.296738,10.314329
2.173000,0.045887,-3.295398,10.315053
2.193000,0.046283,-3.293866,10.312569
2.213000,0.046037,-3.294584,10.309294
2.233000,0.044305,-3.296017,10.309003
2.253000,0.041649,-3.294927,10.311543
2.273000,0.039686,-3.294178,10.313201
2.293000,0.040996,-3.297780,10.312636
2.313000,0.045156,-3.306970,10.310881
2.333000,0.050849,-3.319501,10.308999
2.353000,0.057977,-3.330582,10.308094
2.373000,0.066524,-3.338728,10.307605
2.393000,0.073873,-3.345981,10.307073
2.413000,0.080482,-3.352326,10.307216
2.433000,0.086923,-3.358392,10.306088
2.453000,0.092022,-3.364876,10.302746
2.473000,0.093550,-3.375543,10.300634
2.493000,0.094201,-3.382221,10.299405
2.513000,0.094145,-3.388649,10.299768
2.533000,0.093323,-3.389044,10.302115
2.553000,0.091959,-3.384805,10.303026
2.573000,0.091111,-3.386973,10.300960
2.593000,0.089698,-3.394695,10.295969
2.613000,0.087604,-3.400868,10.291004
2.633000,0.085291,-3.404627,10.287310
2.653000,0.082379,-3.407642,10.287531
2.673000,0.077389,-3.410099,10.290359
2.693000,0.072162,-3.410571,10.296824
2.713000,0.067682,-3.407901,10.308466
2.733000,0.064515,-3.403749,10.323847
2.753000,0.065833,-3.398394,10.338140
2.773000,0.071855,-3.396349,10.350350
2.793000,0.080210,-3.398753,10.357578
2.813000,0.089918,-3.402475,10.363058
2.833000,0.101804,-3.404626,10.371045
2.853000,0.118839,-3.410683,10.375313
2.873000,0.132614,-3.417565,10.377359
2.893000,0.146060,-3.421122,10.375459
2.916000,0.163131,-3.416407,10.368765
2.936000,0.181587,-3.403671,10.354620
2.956000,0.203354,-3.384885,10.334559
2.976000,0.219755,-3.381730,10.316352
2.996000,0.228451,-3.391367,10.296650
3.016000,0.232990,-3.397174,10.277911
3.036000,0.231283,-3.405460,10.265729
3.056000,0.224158,-3.413567,10.259486
3.076000,0.216601,-3.416637,10.257233
3.096000,0.207109,-3.418862,10.258329
3.116000,0.196802,-3.425040,10.258864
3.136000,0.183868,-3.429767,10.260879
3.156000,0.174201,-3.430808,10.265650
3.176000,0.168197,-3.423794,10.270397
3.196000,0.168765,-3.407488,10.272057
3.216000,0.169568,-3.390651,10.269869
3.236000,0.166627,-3.380783,10.267798
3.256000,0.164769,-3.368618,10.273291
3.276000,0.160560,-3.354493,10.285192
3.296000,0.155890,-3.341873,10.297286
3.316000,0.154833,-3.330170,10.304877
3.336000,0.154386,-3.317937,10.306120
3.356000,0.150784,-3.315643,10.302538
3.376000,0.150497,-3.319310,10.299997
3.396000,0.145616,-3.319133,10.307777
3.416000,0.140138,-3.307633,10.318041
3.436000,0.140149,-3.290286,10.325233
3.456000,0.141788,-3.280416,10.324740
3.476000,0.137401,-3.285919,10.316375
3.496000,0.141103,-3.282197,10.312978
3.516000,0.139381,-3.270660,10.315456
3.536000,0.137245,-3.257179,10.322004
3.556000,0.135944,-3.247328,10.330426
3.576000,0.134417,-3.238773,10.336872
3.596000,0.132594,-3.231787,10.338202
3.616000,0.130813,-3.236244,10.333940
3.636000,0.132426,-3.242022,10.333216
3.656000,0.134166,-3.234238,10.339969
3.676000,0.134141,-3.212310,10.350293
3.696000,0.133135,-3.194672,10.355942
3.716000,0.134390,-3.188607,10.357488
3.736000,0.130915,-3.194262,10.349776
3.756000,0.132982,-3.190666,10.347458
3.776000,0.130383,-3.185647,10.346312
3.796000,0.126924,-3.179911,10.347906
3.816000,0.125368,-3.175501,10.347977
3.836000,0.120403,-3.175422,10.349627
3.856000,0.115129,-3.177713,10.352265
3.876000,0.110793,-3.175025,10.354543
3.896000,0.105878,-3.171958,10.355600
3.916000,0.102880,-3.168394,10.355522
3.936000,0.103575,-3.162950,10.352906
3.956000,0.105892,-3.157442,10.350389
3.976000,0.111512,-3.152730,10.347178
3.996000,0.125002,-3.144331,10.347925
4.016000,0.140224,-3.129527,10.355130
4.036000,0.152948,-3.110562,10.367722
4.088000,0.163557,-3.098993,10.374129
4.108000,0.169319,-3.098074,10.382389
4.128000,0.177634,-3.102695,10.390374
4.148000,0.182346,-3.094557,10.403379
4.168000,0.185287,-3.081735,10.417379
4.188000,0.193059,-3.068515,10.426332
4.208000,0.200537,-3.059881,10.428922
4.228000,0.208061,-3.055977,10.424398
4.248000,0.216970,-3.054723,10.413936
4.268000,0.222246,-3.054055,10.404008
4.288000,0.223351,-3.048414,10.402272
4.308000,0.220711,-3.040124,10.404648
4.328000,0.216804,-3.034719,10.408340
4.348000,0.214540,-3.032001,10.411661
4.368000,0.212466,-3.029525,10.414183
4.388000,0.211706,-3.022597,10.417181
4.408000,0.207578,-3.021221,10.415769
4.428000,0.203635,-3.028263,10.409941
4.448000,0.201168,-3.031260,10.407642
4.468000,0.199563,-3.021106,10.409366
4.488000,0.193162,-3.013472,10.412413
4.508000,0.188525,-3.006274,10.418303
4.528000,0.183288,-2.999818,10.423702
4.548000,0.177193,-2.994815,10.424787
4.568000,0.171998,-2.996471,10.418749
4.588000,0.168410,-3.003736,10.411407
4.608000,0.165840,-3.007552,10.406412
4.628000,0.157095,-3.009272,10.402258
4.648000,0.147958,-3.005013,10.396493
4.668000,0.137381,-3.005201,10.389254
4.688000,0.123773,-3.009482,10.382733
4.708000,0.110779,-3.012666,10.376757
4.728000,0.101316,-3.017567,10.372013
4.748000,0.098435,-3.024573,10.370454
4.768000,0.101617,-3.031318,10.371974
4.788000,0.111111,-3.033159,10.377023
4.808000,0.125323,-3.027703,10.381542
4.828000,0.140685,-3.018399,10.381563
4.848000,0.156206,-3.010697,10.378639
4.868000,0.171954,-3.009991,10.381802
4.888000,0.186586,-3.004144,10.393001
4.908000,0.200618,-2.988659,10.404160
4.928000,0.215970,-2.971007,10.414346
4.948000,0.229396,-2.961216,10.426393
4.968000,0.238523,-2.961627,10.438894
4.988000,0.248324,-2.967996,10.447656
5.008000,0.257022,-2.976815,10.450200
5.028000,0.262640,-2.989089,10.449582
5.048000,0.266142,-3.002102,10.447055
5.068000,0.270137,-3.006965,10.442662
5.088000,0.273373,-3.003207,10.436421
5.108000,0.273656,-2.994890,10.428663
5.128000,0.270489,-2.989171,10.422539
5.148000,0.264336,-2.991338,10.420809
5.168000,0.256785,-2.996308,10.422353
5.188000,0.249309,-2.994405,10.424600
5.208000,0.243464,-2.984787,10.424597
5.228000,0.237342,-2.975410,10.423182
5.248000,0.230037,-2.972782,10.422499
5.268000,0.222038,-2.971521,10.424601
5.288000,0.212731,-2.967208,10.430224
5.308000,0.204881,-2.963250,10.436175
5.328000,0.203120,-2.962013,10.438834
5.348000,0.205614,-2.962224,10.439073
5.368000,0.208825,-2.962865,10.438902
5.388000,0.212866,-2.967425,10.438110
5.408000,0.218734,-2.975244,10.438404
5.428000,0.222029,-2.981524,10.440921
5.448000,0.224956,-2.987383,10.447363
5.468000,0.228980,-2.992776,10.452998
5.488000,0.235237,-2.991770,10.453622
5.508000,0.240594,-2.988859,10.449187
5.528000,0.243407,-2.989616,10.442403
5.548000,0.243846,-2.993358,10.436093
5.568000,0.241671,-2.995675,10.433247
5.588000,0.236908,-2.996890,10.432895
5.608000,0.231570,-2.996993,10.432953
5.628000,0.226645,-2.995322,10.432843
5.648000,0.221721,-2.991179,10.433620
5.668000,0.216607,-2.985616,10.435300
5.688000,0.210969,-2.980037,10.437512
5.708000,0.206513,-2.975040,10.439224
5.728000,0.203347,-2.971961,10.440369
5.748000,0.201050,-2.971068,10.440424
5.768000,0.199686,-2.972386,10.440311
5.788000,0.197665,-2.974170,10.440894
5.808000,0.195999,-2.975361,10.441256
5.828000,0.194877,-2.974506,10.441134
5.848000,0.194269,-2.971456,10.441589
5.868000,0.194817,-2.970256,10.440962
5.888000,0.197202,-2.974168,10.440724
5.908000,0.200449,-2.981034,10.440825
5.928000,0.203592,-2.985197,10.442024
5.948000,0.204741,-2.987404,10.442542
5.968000,0.205016,-2.992054,10.439320
5.988000,0.204235,-2.999531,10.436033
6.008000,0.200349,-3.000157,10.436539
6.028000,0.194371,-2.998048,10.439673
6.048000,0.187854,-2.998905,10.441149
6.068000,0.182600,-3.000328,10.438539
