gyro_time_list,gyro_x_list,gyro_y_list,gyro_z_list
0.457,-1.020551,0.19958,0.220764
0.477,-1.052327,0.198315,0.228225
0.497,-1.099573,0.200291,0.241908
0.517,-1.157499,0.202778,0.265627
0.537,-1.216138,0.204618,0.295654
0.557,-1.276894,0.205155,0.332996
0.577,-1.342425,0.204663,0.376357
0.597,-1.407962,0.204477,0.424272
0.617,-1.466375,0.204377,0.475758
0.637,-1.519282,0.201871,0.5305
0.657,-1.571478,0.196788,0.588572
0.677,-1.622381,0.189975,0.648479
0.697,-1.666842,0.181265,0.706301
0.717,-1.705603,0.170982,0.758766
0.737,-1.742684,0.160265,0.805458
0.757,-1.778151,0.152085,0.847092
0.777,-1.806295,0.147646,0.884958
0.797,-1.823835,0.143949,0.916987
0.817,-1.829983,0.140699,0.944479
0.837,-1.821101,0.140794,0.969253
0.857,-1.792278,0.143448,0.990759
0.877,-1.744249,0.144957,1.007362
0.897,-1.683741,0.144981,1.019495
0.917,-1.619487,0.144844,1.028109
0.937,-1.557747,0.143708,1.031887
0.957,-1.502007,0.140834,1.029861
0.977,-1.453617,0.13678,1.024717
0.997,-1.41033,0.13266,1.01616
1.017,-1.368938,0.128963,1.003812
1.037,-1.331639,0.125892,0.99059
1.057,-1.300851,0.123389,0.975939
1.077,-1.273635,0.121007,0.959483
1.097,-1.245717,0.119122,0.940491
1.117,-1.213767,0.117139,0.920177
1.137,-1.181288,0.114722,0.900043
1.157,-1.153387,0.111484,0.878648
1.177,-1.127895,0.105028,0.854994
1.197,-1.103828,0.093722,0.827355
1.217,-1.080762,0.079215,0.795112
1.237,-1.052149,0.06339,0.763525
1.257,-1.017201,0.045614,0.736178
1.277,-0.980505,0.025123,0.710079
1.297,-0.941767,0.0025,0.683788
1.317,-0.899446,-0.020753,0.654762
1.337,-0.848274,-0.042362,0.626071
1.357,-0.792715,-0.061801,0.599715
1.377,-0.744602,-0.081135,0.571043
1.397,-0.708052,-0.103054,0.539379
1.417,-0.678384,-0.129283,0.502826
1.437,-0.64799,-0.158219,0.462017
1.457,-0.613229,-0.188051,0.423247
1.477,-0.576609,-0.218526,0.386533
1.497,-0.544225,-0.250755,0.34397
1.517,-0.515701,-0.28028,0.295908
1.537,-0.479693,-0.304442,0.244483
1.557,-0.444784,-0.318576,0.190283
1.577,-0.431102,-0.323388,0.128369
1.597,-0.436203,-0.324401,0.051396
1.617,-0.472935,-0.304852,-0.012837
1.637,-0.550047,-0.247028,-0.028982
1.657,-0.681741,-0.231457,-0.185428
1.677,-0.490089,-0.301032,-0.354405
1.697,-0.278081,-0.33988,-0.534124
1.717,-0.480431,-0.442665,-0.722259
1.737,-0.690741,-0.566626,-0.916082
1.757,-0.710554,-0.668892,-1.002219
1.777,-0.479769,-0.754995,-1.157896
1.797,-0.500852,-0.873047,-1.331041
1.817,-0.584419,-0.914537,-1.449567
1.837,-0.59427,-0.874762,-1.497266
1.857,-0.526285,-0.828493,-1.478946
1.877,-0.39857,-0.841629,-1.407763
1.897,-0.191144,-0.898677,-1.28916
1.917,0.065235,-0.982367,-1.111092
1.937,0.117864,-1.061375,-0.867214
1.957,-0.054213,-1.128485,-0.534316
1.977,-0.266958,-1.152406,-0.290813
1.997,-0.360568,-1.158818,-0.111661
2.017,-0.370519,-1.156289,-0.010014
2.037,-0.373937,-1.135461,0.024947
2.057,-0.349014,-1.095276,0.044171
2.077,-0.343222,-1.056559,0.055748
2.097,-0.284615,-1.008572,0.058328
2.117,-0.164024,-0.954309,0.064754
2.137,-0.051246,-0.903291,0.058572
2.157,0.003449,-0.862282,0.059087
2.177,-0.039774,-0.834484,0.07307
2.197,-0.169984,-0.819854,0.079148
2.217,-0.298821,-0.805783,0.075041
2.237,-0.334172,-0.78317,0.067581
2.257,-0.26784,-0.757376,0.068424
2.277,-0.195387,-0.732224,0.072466
2.297,-0.170368,-0.710736,0.078281
2.317,-0.153885,-0.691279,0.085923
2.337,-0.141171,-0.674899,0.091879
2.357,-0.14822,-0.663489,0.089283
2.377,-0.175405,-0.651418,0.098055
2.397,-0.212573,-0.642802,0.110706
2.417,-0.222976,-0.634188,0.113916
2.437,-0.189866,-0.62169,0.110976
2.615,-0.209496,-0.607169,0.106852
2.635,-0.233114,-0.592618,0.102647
2.655,-0.255122,-0.578095,0.097075
2.675,-0.266573,-0.564211,0.089565
2.695,-0.256455,-0.548603,0.083046
2.715,-0.237611,-0.532667,0.077233
2.735,-0.217678,-0.516923,0.072618
2.755,-0.200974,-0.501315,0.06844
2.775,-0.193822,-0.486324,0.064275
2.795,-0.191797,-0.472397,0.059927
2.815,-0.188953,-0.45837,0.055535
2.835,-0.190372,-0.444826,0.051817
2.855,-0.200015,-0.432613,0.049411
2.875,-0.214034,-0.421929,0.047563
2.895,-0.221198,-0.411431,0.045272
2.915,-0.219942,-0.400904,0.042067
2.935,-0.21747,-0.390607,0.039179
2.955,-0.217196,-0.380589,0.036795
2.975,-0.217751,-0.371023,0.035361
2.995,-0.220996,-0.362554,0.034786
3.015,-0.228643,-0.355285,0.03452
3.035,-0.239259,-0.348606,0.034333
3.055,-0.24941,-0.342347,0.033927
3.075,-0.257388,-0.335918,0.033105
3.095,-0.263761,-0.329364,0.03184
3.115,-0.267013,-0.322584,0.030605
3.135,-0.265967,-0.315629,0.029171
3.155,-0.261311,-0.308537,0.027565
3.175,-0.252872,-0.301112,0.02582
3.195,-0.240738,-0.293593,0.024211
3.215,-0.227311,-0.286409,0.023028
3.235,-0.215698,-0.279972,0.021924
3.255,-0.207058,-0.274042,0.021033
3.275,-0.201068,-0.268486,0.020873
3.295,-0.196421,-0.263362,0.020979
3.315,-0.191003,-0.258534,0.020711
3.335,-0.18241,-0.253827,0.020371
3.355,-0.171551,-0.249341,0.020159
3.375,-0.162619,-0.245193,0.020014
3.395,-0.158258,-0.241498,0.019816
3.415,-0.157028,-0.23802,0.019698
3.435,-0.157029,-0.234619,0.019444
3.455,-0.156999,-0.231304,0.019115
3.475,-0.156021,-0.228084,0.018768
3.495,-0.153345,-0.225014,0.018772
3.515,-0.149183,-0.222066,0.018901
3.535,-0.141731,-0.218825,0.01877
3.555,-0.12874,-0.215029,0.018604
3.575,-0.11247,-0.211019,0.018458
3.595,-0.097417,-0.207177,0.018255
3.615,-0.086062,-0.203763,0.018043
3.635,-0.078742,-0.200886,0.018319
3.655,-0.073389,-0.19833,0.018805
3.675,-0.066992,-0.195868,0.019222
3.695,-0.057021,-0.193399,0.019834
3.715,-0.044815,-0.19122,0.020501
3.735,-0.032935,-0.189369,0.020878
3.755,-0.022028,-0.187838,0.021171
3.775,-0.011071,-0.186474,0.0217
3.795,0.000232,-0.185339,0.022446
3.815,0.011165,-0.184117,0.023565
3.835,0.020008,-0.182868,0.024621
3.855,0.027985,-0.181179,0.025937
3.875,0.037552,-0.179017,0.027584
3.895,0.048905,-0.176582,0.029359
3.915,0.060972,-0.174051,0.031074
3.935,0.073517,-0.171504,0.032471
3.955,0.087342,-0.168472,0.033747
3.975,0.10489,-0.164777,0.03478
3.995,0.130567,-0.15959,0.035146
4.015,0.166178,-0.153259,0.034067
4.035,0.20961,-0.146632,0.031659
4.055,0.253288,-0.139657,0.029399
4.075,0.287821,-0.132641,0.028282
4.095,0.306002,-0.126483,0.027338
4.115,0.318067,-0.12152,0.025746
4.135,0.337209,-0.117505,0.025642
4.155,0.354651,-0.113873,0.026947
4.175,0.3603,-0.111529,0.026791
4.195,0.359102,-0.110242,0.025886
4.215,0.358452,-0.108962,0.026697
4.235,0.357959,-0.108042,0.028057
4.255,0.35411,-0.108296,0.029052
4.275,0.342134,-0.109355,0.029461
4.295,0.321948,-0.110573,0.029313
4.315,0.297032,-0.111497,0.028591
4.335,0.270685,-0.112219,0.02797
4.355,0.245864,-0.112591,0.027341
4.375,0.225694,-0.112384,0.026588
4.395,0.21071,-0.111788,0.025545
4.415,0.199218,-0.110846,0.024538
4.435,0.188997,-0.110026,0.023497
4.455,0.180042,-0.109503,0.022595
4.475,0.171872,-0.109322,0.021795
4.495,0.165504,-0.109303,0.021168
4.515,0.160483,-0.109355,0.020253
4.535,0.15635,-0.109142,0.019241
4.555,0.151488,-0.108713,0.018331
4.575,0.145458,-0.107923,0.017624
4.595,0.138882,-0.106796,0.01724
5.042,0.130778,-0.105662,0.017251
5.062,0.123983,-0.104432,0.017455
5.082,0.118566,-0.103113,0.017702
5.102,0.113679,-0.101817,0.017825
5.122,0.109261,-0.100585,0.017674
5.142,0.105903,-0.099332,0.017346
5.162,0.104171,-0.098027,0.016892
5.182,0.103491,-0.096656,0.016443
5.202,0.102594,-0.095318,0.015989
5.222,0.101023,-0.09402,0.015535
5.242,0.099315,-0.092747,0.015071
5.262,0.097683,-0.091505,0.014701
5.282,0.095781,-0.090312,0.014449
5.302,0.09327,-0.089168,0.014233
5.322,0.090394,-0.088057,0.014037
5.342,0.087902,-0.086933,0.013833
5.362,0.085989,-0.085801,0.013544
5.382,0.084236,-0.084699,0.013213
5.402,0.082371,-0.083643,0.012878
5.422,0.080458,-0.082598,0.012588
5.442,0.07863,-0.081519,0.012338
5.462,0.076989,-0.080424,0.012084
5.482,0.075459,-0.07934,0.011818
5.502,0.073838,-0.078297,0.011564
5.522,0.072067,-0.077293,0.011285
5.542,0.070346,-0.076304,0.010979
5.562,0.06871,-0.0753,0.010702
5.582,0.067081,-0.074315,0.010434
5.602,0.065419,-0.073351,0.010164
5.622,0.063777,-0.072407,0.009902
5.642,0.062283,-0.071446,0.009647
5.662,0.061008,-0.070463,0.009388
5.682,0.059813,-0.069479,0.009101
5.702,0.058594,-0.068524,0.008822
5.722,0.057314,-0.067615,0.008592
5.742,0.056025,-0.066718,0.008352
5.762,0.054852,-0.065815,0.008088
5.782,0.0537,-0.064932,0.007837
5.802,0.05239,-0.064065,0.007605
5.822,0.050993,-0.063222,0.007334
5.842,0.049715,-0.062357,0.007066
5.862,0.048491,-0.061493,0.00683
5.882,0.047204,-0.060645,0.006655
5.902,0.045993,-0.059816,0.006455
5.922,0.044989,-0.058985,0.006285
5.942,0.044043,-0.05816,0.006013
5.962,0.043154,-0.057327,0.005715
5.982,0.042455,-0.056485,0.00539
6.002,0.041743,-0.055681,0.005153
6.022,0.040942,-0.054886,0.00495
6.042,0.040109,-0.0541,0.00473
6.062,0.039264,-0.053338,0.004501
6.082,0.038555,-0.05257,0.004254
6.102,0.037962,-0.051774,0.00399
6.122,0.037268,-0.050991,0.003732
6.142,0.036386,-0.050216,0.003505
6.162,0.035459,-0.049445,0.003373
6.182,0.034515,-0.048698,0.003259
6.202,0.033603,-0.047958,0.003113
6.222,0.032805,-0.047238,0.0029
6.242,0.032065,-0.046535,0.002652
6.262,0.031307,-0.045863,0.002371
6.282,0.030548,-0.04519,0.002116
6.302,0.029815,-0.044515,0.001911
6.322,0.029138,-0.043825,0.001761
6.342,0.028439,-0.043148,0.001574
6.362,0.027755,-0.042476,0.001355
6.382,0.027236,-0.041808,0.001124
6.402,0.026916,-0.041136,0.000845
6.422,0.026813,-0.040434,0.000559
6.442,0.026799,-0.03977,0.000259
6.462,0.026685,-0.039159,-0.000044
6.482,0.026396,-0.038564,-0.000428
6.502,0.025997,-0.037942,-0.000815
6.522,0.025701,-0.0372,-0.001159
6.542,0.025687,-0.036345,-0.001419
6.562,0.025589,-0.035515,-0.001571
6.582,0.024818,-0.034824,-0.001615
6.602,0.02343,-0.034243,-0.001598
6.622,0.022275,-0.033706,-0.001694
6.642,0.02185,-0.033134,-0.001958
6.662,0.021666,-0.032579,-0.002314
6.682,0.020827,-0.032135,-0.002617
6.702,0.01936,-0.031743,-0.002754
6.722,0.018059,-0.031268,-0.002806
6.742,0.017415,-0.03065,-0.002838
6.762,0.017184,-0.029975,-0.002918
6.782,0.016981,-0.029334,-0.00304
6.802,0.016742,-0.028763,-0.003191
6.822,0.016627,-0.028241,-0.003408
6.842,0.016551,-0.027728,-0.003625
6.862,0.016324,-0.027206,-0.003816
6.882,0.015996,-0.026659,-0.003969
6.902,0.015432,-0.026134,-0.004038
6.922,0.014582,-0.02566,-0.004041
6.942,0.013725,-0.025227,-0.004063
6.962,0.01308,-0.02479,-0.004129
6.982,0.012518,-0.02436,-0.004255
7.002,0.011933,-0.023935,-0.00445
7.022,0.011405,-0.023501,-0.004649
7.121,0.011001,-0.023014,-0.004737
7.141,0.010746,-0.022543,-0.00485
7.161,0.010479,-0.022106,-0.004978
7.181,0.010068,-0.02169,-0.005105
7.201,0.009591,-0.021265,-0.005252
7.221,0.009077,-0.02083,-0.005375
7.241,0.008487,-0.020394,-0.00542
7.261,0.007782,-0.019958,-0.005457
7.281,0.007041,-0.019531,-0.005482
7.301,0.006419,-0.019104,-0.005606
7.321,0.005958,-0.01869,-0.005901
7.341,0.005369,-0.018329,-0.006362
7.361,0.004425,-0.017936,-0.006726
7.381,0.003627,-0.017303,-0.006828
7.401,0.003436,-0.016522,-0.006857
7.421,0.0036,-0.015784,-0.00718
7.441,0.004384,-0.014968,-0.008056
7.461,0.00654,-0.013894,-0.009671
7.481,0.009175,-0.012802,-0.011689
7.501,0.010902,-0.011845,-0.013036
7.521,0.010554,-0.011274,-0.013661
7.541,0.008009,-0.011204,-0.013524
7.561,0.003197,-0.011646,-0.012662
7.581,-0.004471,-0.012033,-0.011653
7.601,-0.014919,-0.012063,-0.011574
7.621,-0.025859,-0.011423,-0.012488
7.641,-0.034657,-0.010295,-0.01288
7.661,-0.040474,-0.00921,-0.011783
7.681,-0.044768,-0.008504,-0.009957
7.701,-0.049105,-0.00785,-0.008526
7.721,-0.052804,-0.006656,-0.007699
7.741,-0.053743,-0.004924,-0.007569
7.761,-0.051026,-0.003509,-0.008085
7.781,-0.046383,-0.002955,-0.009167
7.801,-0.042784,-0.003144,-0.010493
7.821,-0.042224,-0.003467,-0.011254
7.841,-0.044202,-0.003977,-0.01108
7.861,-0.04642,-0.004397,-0.010635
7.881,-0.047079,-0.004315,-0.009044
7.901,-0.046933,-0.003851,-0.006353
7.921,-0.046525,-0.003546,-0.003247
7.941,-0.045603,-0.003276,-0.001394
7.961,-0.043275,-0.002025,-0.000666
7.981,-0.037917,-0.000036,-0.000065
8.001,-0.030462,0.001837,0.000494
8.021,-0.024142,0.003242,0.000876
8.041,-0.020811,0.003911,0.001411
8.061,-0.021498,0.003935,0.002506
8.081,-0.026963,0.003702,0.004348
8.101,-0.037836,0.003656,0.007275
8.121,-0.054033,0.003785,0.011214
8.141,-0.073555,0.003572,0.014649
8.161,-0.09549,0.002637,0.016016
8.181,-0.116999,0.002015,0.01575
8.201,-0.13464,0.002095,0.015094
8.221,-0.146622,0.002554,0.014206
8.241,-0.154531,0.002945,0.013803
8.261,-0.160789,0.003265,0.013974
8.281,-0.165051,0.003572,0.014554
8.301,-0.164812,0.003676,0.015017
8.321,-0.160585,0.003546,0.014367
8.341,-0.153731,0.003633,0.012981
8.361,-0.146053,0.003898,0.012426
8.381,-0.141101,0.003911,0.012451
8.401,-0.140397,0.003889,0.013455
8.421,-0.147538,0.003786,0.012206
8.441,-0.159004,0.003621,0.011862
8.461,-0.173987,0.003306,0.011349
8.481,-0.18731,0.003409,0.011085
8.501,-0.195422,0.003809,0.011062
8.521,-0.19838,0.003928,0.011457
8.541,-0.197161,0.004314,0.01216
8.561,-0.192928,0.005642,0.013192
8.581,-0.188031,0.007173,0.014789
8.601,-0.185358,0.007684,0.015952
8.621,-0.184904,0.007386,0.016859
8.641,-0.185302,0.007493,0.017162
8.661,-0.185747,0.007749,0.016293
8.681,-0.189047,0.007747,0.015489
8.701,-0.193896,0.007345,0.014237
8.721,-0.197432,0.006709,0.012253
8.741,-0.202899,0.006265,0.00987
8.761,-0.209892,0.006057,0.007655
8.781,-0.216905,0.005972,0.005311
8.801,-0.222975,0.005577,0.003309
8.821,-0.22736,0.004692,0.001193
8.841,-0.231759,0.003801,-0.001198
8.861,-0.236434,0.003434,-0.002817
8.881,-0.241848,0.00349,-0.002899
8.901,-0.245261,0.003532,-0.002874
8.921,-0.245793,0.003738,-0.003197
8.941,-0.244615,0.004106,-0.003476
8.961,-0.242574,0.004455,-0.002969
8.981,-0.239502,0.004323,-0.00177
9.001,-0.235202,0.004147,-0.000642
9.021,-0.229858,0.004273,0.000098
9.041,-0.223427,0.004844,0.000525
9.061,-0.216654,0.005524,0.001168
9.081,-0.209791,0.006237,0.001946
9.101,-0.20335,0.007083,0.002753
