accel_time_list,accel_x_list,accel_y_list,accel_z_list
44.696,1.331295,1.005296,10.8172
44.716,1.330911,1.006256,10.81725
44.736,1.330626,1.007279,10.81746
44.756,1.330775,1.007884,10.81743
44.776,1.330779,1.008459,10.81759
44.796,1.330855,1.009316,10.81744
44.816,1.330739,1.010284,10.81756
44.836,1.330863,1.011243,10.81729
44.856,1.330531,1.012263,10.81705
44.876,1.330753,1.013633,10.81705
44.896,1.330781,1.014486,10.81698
44.916,1.330833,1.015354,10.81683
44.936,1.33086,1.015903,10.81679
44.956,1.330767,1.01659,10.81667
44.976,1.330676,1.017461,10.81653
44.996,1.330705,1.018276,10.81646
45.016,1.330638,1.018987,10.81621
45.036,1.330523,1.019906,10.81624
45.056,1.330506,1.020433,10.81622
45.076,1.330345,1.021218,10.81577
45.096,1.330449,1.022115,10.81564
45.116,1.330384,1.023003,10.81546
45.136,1.33044,1.024121,10.8151
45.156,1.330328,1.024822,10.81502
45.176,1.330025,1.025443,10.81514
45.196,1.329654,1.026729,10.81515
45.216,1.329764,1.02769,10.81505
45.236,1.330066,1.028139,10.81488
45.256,1.330293,1.028584,10.815
45.276,1.330565,1.02888,10.81492
45.296,1.330595,1.029437,10.81466
45.316,1.330553,1.030516,10.81439
45.336,1.330343,1.031726,10.81423
45.356,1.330088,1.03259,10.81414
45.376,1.329908,1.03311,10.81407
45.396,1.330016,1.033433,10.8141
45.416,1.3301,1.033753,10.81375
45.436,1.33023,1.034141,10.81375
45.456,1.330264,1.034765,10.81367
45.476,1.330249,1.035694,10.81329
45.496,1.330378,1.036734,10.81297
45.516,1.330625,1.037643,10.81287
45.536,1.330894,1.0384,10.81269
45.556,1.331064,1.039053,10.81266
45.576,1.330898,1.039891,10.81271
45.596,1.330637,1.040889,10.81287
45.616,1.330691,1.041733,10.81303
45.636,1.3306,1.042353,10.81274
45.656,1.330629,1.042943,10.81273
45.676,1.330587,1.043646,10.81273
45.696,1.330569,1.044606,10.81275
45.716,1.330791,1.045437,10.81255
45.736,1.331201,1.046283,10.81221
45.756,1.331321,1.047217,10.81243
45.776,1.331343,1.047997,10.81228
45.796,1.331294,1.048531,10.81214
45.816,1.331125,1.049346,10.81192
45.836,1.330814,1.050967,10.81207
45.856,1.330722,1.052213,10.8119
45.876,1.33087,1.053039,10.81162
45.896,1.331185,1.053594,10.8116
45.916,1.331352,1.054287,10.81156
45.936,1.331326,1.054925,10.81135
45.956,1.331397,1.055844,10.81131
45.976,1.331514,1.057424,10.81101
45.996,1.331631,1.058869,10.81092
46.016,1.331506,1.05982,10.81065
46.036,1.331503,1.060235,10.81067
46.056,1.331548,1.060934,10.81039
46.076,1.331592,1.06184,10.81015
46.096,1.331731,1.063097,10.8101
46.116,1.332013,1.064126,10.81017
46.136,1.332077,1.065121,10.80992
46.156,1.332115,1.065818,10.80959
46.176,1.332154,1.066604,10.8094
46.196,1.332216,1.067765,10.80914
46.216,1.332158,1.068987,10.8089
46.236,1.332339,1.070268,10.80882
46.256,1.332543,1.071536,10.80854
46.276,1.332721,1.072385,10.80848
46.296,1.332778,1.073417,10.80833
46.316,1.332929,1.074821,10.80798
46.336,1.333079,1.075996,10.80795
46.356,1.333443,1.076465,10.80776
46.376,1.333708,1.076666,10.80751
46.396,1.33385,1.077128,10.80727
46.416,1.333967,1.077873,10.80715
46.436,1.333963,1.079113,10.80709
46.456,1.333911,1.080053,10.80719
46.476,1.334315,1.08108,10.8068
46.496,1.334523,1.08212,10.80655
46.516,1.334226,1.08351,10.80629
46.536,1.334124,1.084789,10.80623
46.556,1.334166,1.085721,10.80617
46.576,1.33416,1.086308,10.80614
46.596,1.334154,1.086722,10.80584
46.616,1.334292,1.08761,10.80588
46.636,1.334261,1.088082,10.80592
46.656,1.334278,1.088382,10.80586
46.676,1.334367,1.08935,10.80576
46.767,1.334335,1.089518,10.80549
46.787,1.334327,1.090234,10.80536
46.807,1.334535,1.090968,10.80519
46.827,1.334789,1.091838,10.80507
46.847,1.334944,1.092483,10.80507
46.867,1.334978,1.092644,10.80488
46.887,1.335084,1.093066,10.8049
46.907,1.335189,1.093651,10.80476
46.927,1.335124,1.09435,10.80481
46.947,1.335037,1.095282,10.80496
46.967,1.335214,1.096037,10.80513
46.987,1.335317,1.096449,10.80527
47.007,1.335372,1.096713,10.80541
47.027,1.335617,1.096903,10.80531
47.047,1.335596,1.097259,10.80555
47.067,1.335648,1.097802,10.80554
47.087,1.33546,1.097957,10.80518
47.107,1.335345,1.098302,10.80501
47.127,1.335327,1.098907,10.80489
47.147,1.335525,1.099338,10.80521
47.167,1.335554,1.099622,10.8052
47.187,1.335606,1.099687,10.80503
47.207,1.335609,1.100278,10.8052
47.227,1.335373,1.101198,10.80544
47.247,1.335235,1.101391,10.80551
47.267,1.335554,1.10151,10.80543
47.287,1.335654,1.101604,10.80523
47.307,1.335729,1.101721,10.80526
47.327,1.335875,1.102363,10.80516
47.347,1.33578,1.102808,10.80499
47.367,1.335734,1.103176,10.80492
47.387,1.335665,1.103397,10.80499
47.407,1.335907,1.103353,10.80502
47.427,1.335979,1.103524,10.80526
47.447,1.336147,1.103742,10.80525
47.467,1.336169,1.104244,10.80508
47.487,1.336335,1.104718,10.80513
47.507,1.336522,1.105139,10.80511
47.527,1.336804,1.105436,10.80501
47.547,1.33682,1.10573,10.80511
47.567,1.336763,1.106069,10.80537
47.587,1.336827,1.106285,10.80527
47.607,1.336914,1.106595,10.80522
47.627,1.336833,1.107069,10.80527
47.647,1.336609,1.107443,10.80545
47.667,1.336722,1.107645,10.80547
47.687,1.336762,1.107678,10.80518
47.707,1.33685,1.107973,10.80521
47.727,1.336698,1.10829,10.80499
47.747,1.336595,1.108962,10.80496
47.767,1.33654,1.109221,10.80506
47.787,1.336415,1.109262,10.80523
47.807,1.336578,1.109159,10.80525
47.827,1.33662,1.108913,10.80513
47.847,1.336661,1.10922,10.80486
47.867,1.336654,1.109908,10.80506
47.887,1.336695,1.110397,10.80522
47.907,1.336496,1.110234,10.80501
47.927,1.336467,1.109954,10.80489
47.947,1.336534,1.109843,10.80474
47.967,1.33672,1.110285,10.80475
47.987,1.336736,1.110698,10.80475
48.007,1.336824,1.110581,10.80449
48.027,1.337031,1.11056,10.80414
48.047,1.33714,1.110995,10.80422
48.067,1.337152,1.111401,10.80451
48.087,1.336949,1.111683,10.80454
48.107,1.337178,1.111771,10.80476
48.127,1.337358,1.112098,10.80465
48.147,1.337535,1.112684,10.80453
48.167,1.337807,1.113026,10.80466
48.187,1.33786,1.113172,10.80468
48.207,1.337817,1.113078,10.80464
48.227,1.337751,1.113607,10.80462
48.247,1.337877,1.114226,10.80455
48.267,1.337953,1.114672,10.80444
48.287,1.337981,1.114874,10.80447
48.307,1.338201,1.115073,10.80449
48.327,1.338202,1.115199,10.80474
48.347,1.33806,1.115468,10.80477
48.367,1.337896,1.115925,10.80491
48.387,1.337996,1.116401,10.80479
48.407,1.337904,1.11649,10.80439
48.427,1.337956,1.116746,10.8042
48.447,1.338176,1.117429,10.80429
48.467,1.338082,1.11813,10.80441
48.487,1.337893,1.118298,10.80439
48.507,1.33761,1.11808,10.80428
48.527,1.337738,1.118487,10.80438
48.547,1.337744,1.119297,10.80451
48.567,1.337989,1.119524,10.80432
48.587,1.337921,1.119774,10.80428
48.607,1.337973,1.120116,10.80451
48.627,1.33769,1.120455,10.80444
48.647,1.337721,1.120718,10.80447
48.667,1.337966,1.121195,10.80414
48.687,1.338114,1.121715,10.80436
48.707,1.338428,1.122397,10.80413
48.727,1.338187,1.123383,10.8045
48.747,1.338189,1.124025,10.80422
48.904,1.33855,1.1243,10.80451
48.924,1.338428,1.123257,10.8048
48.944,1.338069,1.122774,10.80459
48.964,1.338143,1.123805,10.80493
48.984,1.338193,1.125064,10.80788
49.004,1.338506,1.12126,10.8112
49.024,1.33872,1.118499,10.81401
49.044,1.336179,1.116603,10.8173
49.064,1.336751,1.113745,10.81998
49.084,1.337007,1.110676,10.82323
49.104,1.336925,1.110535,10.82719
49.124,1.335167,1.113316,10.83544
49.144,1.337641,1.110874,10.83779
49.164,1.340761,1.104194,10.83859
49.184,1.344089,1.100215,10.83842
49.204,1.346761,1.096491,10.83912
49.224,1.351417,1.089668,10.83945
49.244,1.358062,1.079658,10.83944
49.264,1.36579,1.067688,10.84077
49.284,1.374446,1.058447,10.84008
49.304,1.383949,1.051023,10.83913
49.324,1.394076,1.044296,10.83778
49.344,1.405849,1.036654,10.83475
49.364,1.419419,1.026024,10.82832
49.384,1.432734,1.015237,10.82077
49.404,1.445605,1.008796,10.81316
49.424,1.458658,1.0051,10.8059
49.444,1.471725,1.000532,10.79849
49.464,1.484709,0.994717,10.79092
49.484,1.498855,0.989295,10.78268
49.504,1.514153,0.986919,10.77409
49.524,1.53095,0.985861,10.76554
49.544,1.550189,0.990056,10.75643
49.564,1.57072,0.997609,10.7466
49.584,1.593823,1.004848,10.73564
49.604,1.616814,1.009476,10.72793
49.624,1.63474,1.009867,10.72267
49.644,1.648416,1.009322,10.71655
49.664,1.655921,1.007464,10.71274
49.684,1.654637,1.00225,10.71345
49.704,1.648505,0.996274,10.7171
49.724,1.641286,0.993757,10.7214
49.744,1.63378,0.994282,10.72542
49.764,1.626516,0.996861,10.72928
49.784,1.616667,0.999079,10.73231
49.804,1.602775,1.002855,10.7379
49.824,1.586364,1.0166,10.76393
49.844,1.5722,1.02475,10.77794
49.864,1.555138,1.02281,10.77677
49.884,1.542052,1.01931,10.77341
49.904,1.532521,1.023698,10.7721
49.924,1.522152,1.028784,10.77629
49.944,1.51804,1.031784,10.77894
49.964,1.495342,1.039566,10.78488
49.984,1.490923,1.048851,10.78635
50.004,1.493826,1.062017,10.78654
50.024,1.497036,1.079098,10.7912
50.044,1.506103,1.089807,10.78844
50.064,1.515846,1.097368,10.77953
50.084,1.526282,1.101837,10.77191
50.104,1.542862,1.108224,10.77657
50.124,1.550873,1.118379,10.79192
50.144,1.557917,1.128431,10.80512
50.164,1.574157,1.140562,10.813
50.184,1.590306,1.152692,10.81608
50.204,1.599494,1.163239,10.81539
50.224,1.605622,1.173706,10.81462
50.244,1.603117,1.187946,10.8133
50.264,1.593191,1.207718,10.80537
50.284,1.582191,1.228656,10.78911
50.304,1.572833,1.250128,10.7682
50.324,1.55938,1.274402,10.74752
50.344,1.539907,1.298504,10.73481
50.364,1.511292,1.326939,10.7273
50.384,1.484735,1.359998,10.71419
50.404,1.469337,1.39749,10.69269
50.424,1.457349,1.430178,10.67377
50.444,1.446247,1.453776,10.65368
50.464,1.442582,1.468975,10.62639
50.484,1.446736,1.486152,10.59394
50.504,1.451925,1.504761,10.56596
50.524,1.45778,1.522873,10.55827
50.544,1.470879,1.545162,10.58781
50.564,1.48684,1.56184,10.63861
50.584,1.503264,1.571768,10.66319
50.604,1.523977,1.585355,10.64802
50.624,1.543333,1.598807,10.62243
50.644,1.558929,1.609753,10.60523
50.664,1.574009,1.621453,10.59571
50.684,1.584127,1.622189,10.59127
50.704,1.590815,1.609223,10.59328
50.724,1.595664,1.592844,10.60301
50.744,1.597736,1.573372,10.61291
50.764,1.591192,1.560607,10.63301
50.784,1.574753,1.532575,10.65323
50.804,1.569684,1.507122,10.65437
50.824,1.567299,1.500191,10.65528
50.844,1.565464,1.501972,10.65804
50.864,1.565204,1.489897,10.65884
50.884,1.563175,1.473634,10.66093
51.108,1.561406,1.469193,10.66285
51.128,1.560037,1.46731,10.66221
51.148,1.560311,1.466762,10.66321
51.168,1.559456,1.46883,10.66659
51.188,1.556718,1.476743,10.66687
51.208,1.554535,1.482231,10.66806
51.228,1.552732,1.482899,10.67175
51.248,1.551761,1.485308,10.675
51.268,1.551974,1.491739,10.67376
51.288,1.553573,1.49758,10.67218
51.308,1.552665,1.49886,10.6783
51.328,1.547961,1.495532,10.68375
51.348,1.544236,1.495851,10.68583
51.368,1.552425,1.494827,10.68316
51.388,1.558712,1.493262,10.68302
51.408,1.564242,1.484938,10.68639
51.428,1.572661,1.479833,10.69088
51.448,1.578506,1.478657,10.69243
51.468,1.586759,1.487621,10.68827
51.488,1.593876,1.498866,10.68309
51.508,1.601472,1.508322,10.67744
51.528,1.608585,1.510741,10.66957
51.548,1.613975,1.514428,10.65993
51.568,1.619862,1.531725,10.64903
51.588,1.616401,1.556438,10.64065
51.608,1.611968,1.580905,10.6337
51.628,1.610142,1.604768,10.62902
51.648,1.604144,1.627506,10.62803
51.668,1.59653,1.652651,10.62815
51.688,1.592967,1.679388,10.63066
51.708,1.591378,1.700254,10.63169
51.728,1.590955,1.711958,10.62825
51.748,1.592643,1.720984,10.62554
51.768,1.594793,1.734611,10.62257
51.788,1.600321,1.745493,10.62001
51.808,1.607661,1.751357,10.62172
51.828,1.614856,1.753811,10.62714
51.848,1.618196,1.745539,10.62959
51.868,1.624831,1.730286,10.63039
51.888,1.63717,1.707189,10.63407
51.908,1.646105,1.682767,10.63473
51.928,1.65246,1.65325,10.63327
51.948,1.661386,1.626949,10.62891
51.968,1.673479,1.609698,10.62322
51.988,1.682458,1.595924,10.62085
52.008,1.690605,1.59409,10.62102
52.028,1.695701,1.597111,10.62216
52.048,1.699957,1.586312,10.62356
52.068,1.700986,1.571837,10.62976
52.088,1.699921,1.580635,10.63551
52.108,1.693768,1.60656,10.64216
52.128,1.688346,1.629472,10.64455
52.148,1.684847,1.658691,10.63919
52.168,1.679897,1.702199,10.63132
52.188,1.674135,1.744112,10.62219
52.208,1.66642,1.777131,10.61765
52.228,1.658638,1.810648,10.61385
52.248,1.653784,1.845277,10.6085
52.268,1.651013,1.872791,10.60118
52.288,1.646402,1.890544,10.59402
52.308,1.644303,1.91064,10.59094
52.328,1.64347,1.931163,10.58966
52.348,1.642502,1.946707,10.59059
52.368,1.643435,1.937812,10.59419
52.388,1.643688,1.917559,10.5976
52.408,1.646932,1.888122,10.60357
52.428,1.653925,1.852671,10.60587
52.448,1.665183,1.821306,10.60248
52.468,1.677644,1.793373,10.60127
52.488,1.690915,1.766473,10.60295
52.508,1.704221,1.740655,10.60358
52.528,1.717489,1.714706,10.60155
52.548,1.731631,1.69246,10.60399
52.568,1.749341,1.657722,10.61074
52.588,1.767402,1.635594,10.61695
52.608,1.777118,1.622463,10.62951
52.628,1.786521,1.62425,10.63354
52.648,1.789126,1.646129,10.63736
52.668,1.790915,1.72523,10.63777
52.688,1.785647,1.797001,10.63475
52.708,1.77562,1.830217,10.62268
52.728,1.766195,1.851093,10.60787
52.748,1.760792,1.897241,10.59224
52.768,1.754508,1.96063,10.57488
52.788,1.742781,2.035433,10.55405
52.808,1.724396,2.122995,10.53138
52.828,1.70605,2.204019,10.50352
52.848,1.691336,2.265563,10.47406
52.868,1.675476,2.343598,10.45676
52.888,1.646367,2.402358,10.44413
52.908,1.618507,2.442259,10.42947
52.928,1.603088,2.475013,10.41343
52.948,1.599148,2.494611,10.40161
52.968,1.591632,2.51499,10.39681
52.988,1.58127,2.539538,10.39335
53.008,1.579871,2.553123,10.38703
53.028,1.584543,2.540311,10.38408
53.048,1.589239,2.51259,10.39123
53.068,1.593626,2.492875,10.39987
53.088,1.600937,2.497667,10.40974
53.166,1.610378,2.487773,10.41295
53.186,1.620707,2.466244,10.42039
53.206,1.637228,2.435656,10.43755
53.226,1.650879,2.398732,10.44891
53.246,1.652279,2.349535,10.44699
53.266,1.651151,2.287454,10.44674
53.286,1.650417,2.244397,10.44951
53.306,1.646243,2.255093,10.4578
53.326,1.640555,2.261745,10.46779
53.346,1.637844,2.242708,10.47375
53.366,1.635496,2.230007,10.47397
53.386,1.631806,2.234267,10.46981
53.406,1.634402,2.240934,10.46344
53.426,1.639606,2.238424,10.45886
53.446,1.639084,2.235509,10.45526
53.466,1.636555,2.226858,10.45524
53.486,1.642144,2.249864,10.45234
53.506,1.642602,2.319688,10.45819
53.526,1.637333,2.396287,10.46528
53.546,1.633553,2.446395,10.46499
53.566,1.630625,2.504014,10.46475
53.586,1.619275,2.56444,10.46695
53.606,1.607559,2.593589,10.46619
53.626,1.602305,2.60431,10.46233
53.646,1.601414,2.642693,10.46022
53.666,1.598951,2.697652,10.45723
53.686,1.598667,2.704943,10.45379
53.706,1.60363,2.677532,10.45005
53.726,1.611511,2.652539,10.44924
53.746,1.620703,2.639601,10.4515
53.766,1.629348,2.640661,10.45265
53.786,1.633285,2.619198,10.45284
53.806,1.632563,2.566548,10.46414
53.826,1.636995,2.475614,10.48012
53.846,1.638462,2.357448,10.48328
53.866,1.645588,2.251066,10.47665
53.886,1.664614,2.168707,10.46687
53.906,1.677704,2.093018,10.4657
53.926,1.683959,2.043877,10.4784
53.946,1.683807,2.025177,10.49635
53.966,1.686961,2.023433,10.50178
53.986,1.694345,2.029125,10.49763
54.006,1.697106,2.058714,10.48895
54.026,1.69201,2.11442,10.48248
54.046,1.686917,2.177543,10.46883
54.066,1.67838,2.265055,10.45522
54.086,1.671771,2.414261,10.44435
54.106,1.655077,2.591331,10.43383
54.126,1.636013,2.708839,10.42641
54.146,1.620874,2.752141,10.4228
54.166,1.608352,2.817733,10.41946
54.186,1.600457,2.898894,10.41458
54.206,1.595896,2.966485,10.40625
54.226,1.588317,3.012889,10.39973
54.246,1.581221,3.031881,10.3961
54.266,1.576063,3.032586,10.39403
54.286,1.569544,3.024291,10.39175
54.306,1.566825,2.977965,10.39636
54.326,1.573974,2.915015,10.40512
54.346,1.594793,2.869362,10.41242
54.366,1.620481,2.809605,10.41197
54.386,1.642703,2.750526,10.40268
54.406,1.650888,2.668565,10.39569
54.426,1.651354,2.525481,10.39658
54.446,1.646596,2.340971,10.39511
54.466,1.638534,2.140939,10.39267
54.486,1.635364,1.957429,10.39229
54.506,1.637709,1.818074,10.39637
54.526,1.637709,1.681918,10.40292
54.546,1.631268,1.519248,10.41343
54.566,1.624197,1.359001,10.42422
54.586,1.618705,1.273556,10.43471
54.606,1.612837,1.258865,10.44619
54.626,1.606812,1.272771,10.45739
54.646,1.597112,1.310141,10.46298
54.666,1.591508,1.343032,10.46388
54.686,1.586941,1.406459,10.46066
54.706,1.576076,1.524228,10.45216
54.726,1.564026,1.671959,10.44765
54.746,1.555305,1.877284,10.45084
54.766,1.538699,2.044457,10.45716
54.786,1.528028,2.066834,10.45364
54.806,1.521942,2.071406,10.4555
54.826,1.513043,2.108007,10.46216
54.846,1.508734,2.150712,10.46669
54.866,1.509664,2.173697,10.4678
54.886,1.512045,2.175583,10.46794
54.906,1.515671,2.13277,10.47088
54.926,1.519644,2.070452,10.47188
54.946,1.525517,2.002629,10.47104
54.966,1.531594,1.955567,10.47414
54.986,1.531314,1.904727,10.48008
55.006,1.537381,1.821399,10.48807
55.026,1.544009,1.743063,10.49428
55.046,1.54327,1.651102,10.49361
55.066,1.544118,1.558829,10.48521
55.086,1.546154,1.515244,10.4788
55.106,1.550684,1.539249,10.48161
55.126,1.547747,1.583326,10.4871
55.146,1.543474,1.605857,10.48872
55.283,1.538167,1.618428,10.48975
55.303,1.535618,1.664952,10.49199
55.323,1.530844,1.717189,10.49275
55.343,1.526956,1.749619,10.49015
55.363,1.527919,1.78024,10.48966
55.383,1.527484,1.811566,10.49279
55.403,1.523917,1.826623,10.50061
55.423,1.52436,1.851533,10.50492
55.443,1.526354,1.884104,10.5045
55.463,1.527946,1.901332,10.50195
55.483,1.530384,1.900644,10.50132
55.503,1.530499,1.884651,10.50165
55.523,1.529463,1.852925,10.50198
55.543,1.530952,1.807898,10.5019
55.563,1.533431,1.765395,10.4998
55.583,1.534665,1.734507,10.50436
55.603,1.53907,1.703486,10.5091
55.623,1.542139,1.668563,10.51337
55.643,1.543573,1.637076,10.51634
55.663,1.546357,1.618754,10.5176
55.683,1.548945,1.611613,10.51774
55.703,1.549617,1.62892,10.52152
55.723,1.549875,1.66169,10.52601
55.743,1.552931,1.696928,10.52849
55.763,1.556172,1.724117,10.52675
55.783,1.558327,1.731426,10.5219
55.803,1.560796,1.74449,10.51884
55.823,1.564318,1.7831,10.51334
55.843,1.564884,1.830653,10.50829
55.863,1.563911,1.879746,10.50173
55.883,1.563044,1.925345,10.4948
55.903,1.563575,1.960596,10.49225
55.923,1.5607,1.988783,10.49754
55.943,1.557663,2.038311,10.50808
55.963,1.557553,2.097484,10.51696
55.983,1.556007,2.13081,10.51642
56.003,1.557566,2.140441,10.51023
56.023,1.559468,2.149583,10.50449
56.043,1.561758,2.165595,10.49981
56.063,1.56606,2.172916,10.49477
56.083,1.571085,2.171036,10.48937
56.103,1.573762,2.165447,10.4875
56.123,1.57452,2.145986,10.48881
56.143,1.578671,2.12335,10.49666
56.163,1.58041,2.110011,10.50729
56.183,1.581915,2.084124,10.5128
56.203,1.585034,2.047074,10.51319
56.223,1.589511,2.00702,10.51041
56.243,1.595379,1.970294,10.50356
56.263,1.600015,1.948905,10.49566
56.283,1.603576,1.954296,10.49435
56.303,1.607603,1.976733,10.50318
56.323,1.606491,1.987316,10.51182
56.343,1.60788,1.981286,10.51234
56.363,1.612008,1.98051,10.51148
56.383,1.616694,1.960419,10.50755
56.403,1.623822,1.945317,10.50698
56.423,1.625229,1.954883,10.51154
56.443,1.621595,1.974066,10.51656
56.463,1.614237,1.999913,10.52291
56.483,1.608821,2.024961,10.52999
56.503,1.601902,2.060035,10.52963
56.523,1.5957,2.099392,10.52329
56.543,1.58975,2.138796,10.51351
56.563,1.584172,2.170422,10.50486
56.583,1.580971,2.195568,10.50154
56.603,1.576893,2.227242,10.50503
56.623,1.572473,2.248283,10.50995
56.643,1.569222,2.260907,10.51204
56.663,1.568493,2.266723,10.50786
56.683,1.57031,2.263618,10.50616
56.703,1.573354,2.254979,10.50994
56.723,1.575792,2.247666,10.51514
56.743,1.576698,2.233475,10.51871
56.763,1.578456,2.20971,10.52212
56.783,1.583046,2.181325,10.52416
56.803,1.58625,2.143535,10.52355
56.823,1.586069,2.09395,10.52438
56.843,1.587878,2.05499,10.52903
56.863,1.589525,2.044356,10.53384
56.883,1.591083,2.037114,10.53646
56.903,1.594422,2.010656,10.53668
56.923,1.598134,1.982302,10.53525
56.943,1.599391,1.97422,10.53543
56.963,1.599151,1.979024,10.5342
56.983,1.602935,1.986739,10.53183
57.003,1.602971,2.005446,10.53267
57.023,1.601139,2.013201,10.5336
57.043,1.603276,2.010826,10.53308
57.063,1.602087,2.007897,10.53427
57.083,1.599929,2.012903,10.53485
57.103,1.597361,2.028326,10.53879
57.123,1.596399,2.046874,10.54285
57.143,1.596811,2.059638,10.54489
57.163,1.593844,2.067721,10.54319
57.183,1.594186,2.082651,10.54645
57.203,1.59565,2.107035,10.55191
57.223,1.59413,2.122394,10.5507
57.243,1.594206,2.120878,10.54695
57.263,1.596101,2.12422,10.54242
