gyro_time_list,gyro_x_list,gyro_y_list,gyro_z_list
0.52,-1.226793,-0.04743,0.571429
0.54,-1.367152,-0.060221,0.524332
0.56,-1.473608,-0.058399,0.514031
0.58,-1.53289,-0.042625,0.531115
0.6,-1.539314,-0.018092,0.570885
0.62,-1.492364,0.012646,0.622134
0.64,-1.406622,0.044501,0.667972
0.66,-1.299442,0.078752,0.694345
0.68,-1.178646,0.116028,0.696126
0.7,-1.039476,0.155672,0.674124
0.72,-0.878198,0.194801,0.632736
0.74,-0.697425,0.229664,0.577281
0.76,-0.503973,0.257659,0.513716
0.78,-0.309191,0.277986,0.44586
0.8,-0.126435,0.290149,0.375589
0.82,0.033527,0.294509,0.304085
0.84,0.164259,0.293432,0.232119
0.86,0.266681,0.289228,0.160724
0.88,0.352153,0.283719,0.091502
0.9,0.434777,0.276502,0.025191
0.92,0.525038,0.267176,-0.037118
0.94,0.626137,0.2562,-0.094387
0.96,0.736579,0.241494,-0.147038
0.98,0.850472,0.219726,-0.198798
1,0.956553,0.192189,-0.25304
1.02,1.042653,0.162386,-0.311945
1.04,1.105633,0.132502,-0.376038
1.06,1.147697,0.101999,-0.442436
1.08,1.170611,0.070785,-0.506837
1.1,1.177938,0.040919,-0.563942
1.12,1.17655,0.01449,-0.610104
1.14,1.175106,-0.006321,-0.641514
1.16,1.180894,-0.020619,-0.654069
1.18,1.198734,-0.029244,-0.645789
1.2,1.22991,-0.034151,-0.618821
1.22,1.272339,-0.037067,-0.575872
1.24,1.322386,-0.039553,-0.522994
1.26,1.377512,-0.042034,-0.465746
1.28,1.43633,-0.044545,-0.407755
1.3,1.495533,-0.046937,-0.352633
1.32,1.550594,-0.04915,-0.303356
1.34,1.596721,-0.050397,-0.262112
1.36,1.629214,-0.049649,-0.231258
1.38,1.647979,-0.046551,-0.210994
1.4,1.656801,-0.041407,-0.200008
1.42,1.660487,-0.034886,-0.196291
1.44,1.66213,-0.027943,-0.197507
1.46,1.661613,-0.021895,-0.204167
1.48,1.657681,-0.016742,-0.215565
1.5,1.649434,-0.012322,-0.230689
1.52,1.638078,-0.00882,-0.247977
1.54,1.623837,-0.006137,-0.267101
1.56,1.605686,-0.004676,-0.285845
1.58,1.58155,-0.004167,-0.300868
1.6,1.549962,-0.004872,-0.308618
1.62,1.512835,-0.005117,-0.309079
1.64,1.470798,-0.002507,-0.304892
1.66,1.432931,0.004409,-0.297355
1.68,1.411192,0.01503,-0.28797
1.7,1.408803,0.028047,-0.279101
1.72,1.421276,0.041701,-0.270533
1.74,1.441044,0.054527,-0.261847
1.76,1.461818,0.065185,-0.251883
1.78,1.479131,0.07374,-0.239611
1.8,1.487096,0.081233,-0.226393
1.82,1.486964,0.086876,-0.213345
1.84,1.485924,0.08995,-0.201303
1.86,1.488565,0.091809,-0.191327
1.88,1.496551,0.092665,-0.18357
1.9,1.508977,0.092756,-0.178157
1.92,1.524017,0.092058,-0.17459
1.94,1.539669,0.090227,-0.17217
1.96,1.554155,0.087587,-0.170554
1.98,1.567405,0.084634,-0.169308
2,1.580027,0.081377,-0.168864
2.02,1.590776,0.076997,-0.169659
2.04,1.598298,0.071427,-0.171847
2.06,1.601624,0.065362,-0.175912
2.08,1.601682,0.059126,-0.182036
2.1,1.600143,0.052358,-0.190324
2.12,1.596585,0.044851,-0.201261
2.14,1.590256,0.037128,-0.214609
2.16,1.580944,0.029702,-0.229791
2.18,1.568996,0.023153,-0.246873
2.2,1.556464,0.017779,-0.265652
2.22,1.545219,0.013616,-0.286074
2.24,1.534646,0.011608,-0.307555
2.26,1.524872,0.011348,-0.330122
2.28,1.517192,0.012769,-0.353427
2.3,1.513127,0.01549,-0.376819
2.32,1.513173,0.018104,-0.400473
2.34,1.514597,0.019556,-0.424833
2.36,1.514048,0.019781,-0.45073
2.38,1.509229,0.019626,-0.478972
2.4,1.500126,0.020169,-0.509632
2.42,1.489679,0.021744,-0.541612
2.44,1.481622,0.024363,-0.573046
2.46,1.47867,0.027535,-0.601617
2.48,1.481518,0.03026,-0.625336
2.5,1.488947,0.031716,-0.643421
2.587,1.486265,0.027057,-0.642876
2.607,1.476335,0.02217,-0.642269
2.627,1.460259,0.017358,-0.642327
2.647,1.43961,0.012851,-0.642485
2.667,1.41645,0.008882,-0.641548
2.687,1.393963,0.005456,-0.638734
2.707,1.374301,0.00265,-0.633666
2.727,1.358296,0.000537,-0.62606
2.747,1.345476,-0.000842,-0.615811
2.767,1.333973,-0.001509,-0.602759
2.787,1.321105,-0.001453,-0.587314
2.807,1.305181,-0.00075,-0.569233
2.827,1.285232,0.000526,-0.548602
2.847,1.261443,0.002417,-0.524927
2.867,1.231776,0.005329,-0.498113
2.887,1.195864,0.008888,-0.46884
2.907,1.155267,0.014189,-0.437468
2.927,1.111081,0.021338,-0.404447
2.947,1.063799,0.030037,-0.371198
2.967,1.016695,0.03964,-0.33631
2.987,0.973041,0.049693,-0.299992
3.007,0.935206,0.059651,-0.263538
3.027,0.902545,0.069224,-0.227917
3.047,0.870906,0.078632,-0.192296
3.067,0.83639,0.088435,-0.15483
3.087,0.79918,0.098669,-0.114427
3.107,0.763528,0.10912,-0.070818
3.127,0.733207,0.119346,-0.0249
3.147,0.707084,0.129152,0.020842
3.167,0.682251,0.138143,0.063373
3.187,0.657118,0.145847,0.099688
3.207,0.631015,0.152201,0.128681
3.227,0.603167,0.15727,0.149757
3.247,0.573773,0.160497,0.163524
3.267,0.54451,0.161844,0.171432
3.287,0.516322,0.161501,0.174052
3.307,0.488314,0.159673,0.171722
3.327,0.458777,0.156976,0.164837
3.347,0.42759,0.154036,0.153873
3.367,0.396721,0.151037,0.13957
3.387,0.369186,0.147838,0.122865
3.407,0.347529,0.144436,0.104625
3.427,0.332888,0.140735,0.084886
3.447,0.323675,0.137068,0.063515
3.467,0.317913,0.134368,0.041065
3.487,0.3138,0.130438,0.01684
3.507,0.310156,0.125759,-0.008481
3.527,0.306891,0.119585,-0.035157
3.547,0.304286,0.11221,-0.064778
3.567,0.302165,0.104646,-0.098105
3.587,0.30069,0.097043,-0.136058
3.607,0.299793,0.089943,-0.178229
3.627,0.300348,0.083797,-0.223014
3.647,0.304679,0.078324,-0.26865
3.667,0.315361,0.073158,-0.312714
3.687,0.334208,0.067652,-0.351811
3.707,0.360064,0.061377,-0.384392
3.727,0.390148,0.054258,-0.40963
3.747,0.420529,0.046425,-0.428921
3.767,0.447499,0.038119,-0.443957
3.787,0.467425,0.02922,-0.456799
3.807,0.477613,0.019942,-0.468074
3.827,0.477003,0.010714,-0.477863
3.847,0.468454,0.002086,-0.485904
3.867,0.456928,-0.005681,-0.492198
3.887,0.446827,-0.012412,-0.496513
3.907,0.440881,-0.018139,-0.4981
3.927,0.438661,-0.023069,-0.496962
3.947,0.437747,-0.027022,-0.492967
3.967,0.436201,-0.029826,-0.48584
3.987,0.433249,-0.031568,-0.475968
4.007,0.428617,-0.032473,-0.463405
4.027,0.42138,-0.032623,-0.448457
4.047,0.410815,-0.032151,-0.431737
4.067,0.39604,-0.030771,-0.413698
4.087,0.374921,-0.028131,-0.393677
4.107,0.347457,-0.02484,-0.37074
4.127,0.315733,-0.020312,-0.344664
4.147,0.282503,-0.013905,-0.314327
4.167,0.250776,-0.005988,-0.280864
4.187,0.223704,0.002552,-0.244718
4.207,0.201102,0.011156,-0.207025
4.227,0.181307,0.019387,-0.169851
4.247,0.163115,0.027298,-0.134691
4.267,0.143253,0.034982,-0.101238
4.287,0.117832,0.042295,-0.067853
4.307,0.084832,0.048852,-0.031943
4.327,0.044772,0.05476,0.007577
4.347,0.000539,0.060082,0.050048
4.367,-0.045441,0.064609,0.092506
4.387,-0.091553,0.068448,0.132465
4.407,-0.137041,0.072003,0.168557
4.427,-0.181815,0.075366,0.200673
4.447,-0.226367,0.078386,0.228981
4.467,-0.270894,0.080866,0.254402
4.487,-0.315252,0.082901,0.277497
4.507,-0.3584,0.084618,0.298397
4.527,-0.400429,0.086058,0.316815
4.547,-0.443219,0.087368,0.332587
4.567,-0.488525,0.08884,0.345225
4.931,-0.49732,0.077344,0.285259
4.951,-0.501295,0.065277,0.225057
4.971,-0.501785,0.05281,0.164949
4.991,-0.500284,0.040083,0.105972
5.011,-0.49696,0.026915,0.04876
5.031,-0.492977,0.012325,-0.006003
5.051,-0.491516,-0.004112,-0.057636
5.074,-0.495546,-0.022423,-0.103166
5.094,-0.505352,-0.041863,-0.14092
5.114,-0.519141,-0.061659,-0.16957
5.134,-0.533747,-0.081524,-0.187658
5.154,-0.547989,-0.101728,-0.194082
5.174,-0.562503,-0.122295,-0.188622
5.194,-0.5786,-0.143015,-0.17187
5.214,-0.597073,-0.163462,-0.144285
5.234,-0.618024,-0.183277,-0.106038
5.254,-0.641929,-0.20241,-0.056994
5.274,-0.669881,-0.221163,0.002367
5.294,-0.703182,-0.239547,0.069673
5.314,-0.742617,-0.257104,0.141918
5.334,-0.787865,-0.273376,0.216236
5.354,-0.839187,-0.289055,0.292265
5.374,-0.897791,-0.304658,0.371004
5.394,-0.963792,-0.319879,0.453903
5.414,-1.03491,-0.334182,0.54005
5.434,-1.106582,-0.347325,0.626802
5.454,-1.173238,-0.359228,0.712008
5.474,-1.232515,-0.369637,0.793912
5.494,-1.285914,-0.377931,0.8705
5.514,-1.335852,-0.38356,0.939443
5.534,-1.383528,-0.386373,0.99974
5.554,-1.429443,-0.386662,1.051372
5.574,-1.473885,-0.384827,1.09524
5.594,-1.517401,-0.381107,1.132858
5.614,-1.560207,-0.375441,1.165025
5.634,-1.601615,-0.367783,1.192423
5.654,-1.64117,-0.357939,1.215638
5.674,-1.678461,-0.345919,1.235697
5.694,-1.713204,-0.3315,1.252987
5.714,-1.745712,-0.314791,1.267367
5.734,-1.775877,-0.296265,1.278193
5.754,-1.802894,-0.276301,1.285329
5.774,-1.825061,-0.254991,1.288521
5.794,-1.839276,-0.232348,1.28736
5.814,-1.841989,-0.208307,1.281565
5.834,-1.832442,-0.183023,1.271754
5.854,-1.812042,-0.155776,1.259561
5.874,-1.780489,-0.127511,1.246432
5.894,-1.738625,-0.100573,1.232139
5.914,-1.689485,-0.076653,1.215499
5.934,-1.638727,-0.057646,1.193396
5.954,-1.593289,-0.043314,1.163193
5.974,-1.556922,-0.032838,1.123176
5.994,-1.529189,-0.025245,1.072797
6.014,-1.505752,-0.020064,1.012979
6.034,-1.479737,-0.017686,0.945689
6.054,-1.447833,-0.018012,0.872509
6.074,-1.411494,-0.020583,0.794636
6.094,-1.372112,-0.025099,0.713834
6.114,-1.329823,-0.032383,0.63141
6.134,-1.285437,-0.042161,0.547305
6.154,-1.238263,-0.05261,0.463433
6.174,-1.186799,-0.063521,0.379897
6.194,-1.130525,-0.074789,0.297384
6.214,-1.069147,-0.086418,0.217056
6.234,-1.00413,-0.09852,0.140137
6.254,-0.938648,-0.1113,0.066244
6.274,-0.876436,-0.124956,-0.004292
6.294,-0.821111,-0.139249,-0.071459
6.314,-0.774843,-0.153787,-0.135233
6.334,-0.737566,-0.168138,-0.195098
6.354,-0.707341,-0.182031,-0.250067
6.374,-0.682708,-0.195362,-0.298975
6.394,-0.662288,-0.2078,-0.340625
6.414,-0.64428,-0.218895,-0.374248
6.434,-0.626904,-0.228308,-0.399538
6.454,-0.608525,-0.235859,-0.416506
6.474,-0.589379,-0.24141,-0.424738
6.494,-0.570627,-0.245043,-0.424448
6.514,-0.553479,-0.246679,-0.416544
6.534,-0.539332,-0.246218,-0.401892
6.554,-0.529353,-0.244137,-0.381322
6.574,-0.526128,-0.240088,-0.354319
6.594,-0.531158,-0.2345,-0.318637
6.614,-0.543236,-0.226872,-0.27407
6.634,-0.559836,-0.216656,-0.218451
6.654,-0.576622,-0.204132,-0.153885
6.674,-0.588247,-0.190101,-0.084422
6.694,-0.592054,-0.175986,-0.014549
6.714,-0.590609,-0.161784,0.052322
6.734,-0.58842,-0.145885,0.114423
6.754,-0.588287,-0.129458,0.173496
6.774,-0.59162,-0.114868,0.232712
6.794,-0.598225,-0.101284,0.294374
6.814,-0.607871,-0.087171,0.360461
6.834,-0.620083,-0.071829,0.429388
6.854,-0.632732,-0.055459,0.495967
6.874,-0.642573,-0.038907,0.556142
6.894,-0.648085,-0.022782,0.607915
6.914,-0.650545,-0.007126,0.649707
