gyro_time_list,gyro_x_list,gyro_y_list,gyro_z_list
0.295000,-1.453819,0.149885,1.971689
0.315000,-1.338441,0.153749,2.113580
0.335000,-1.205345,0.172315,2.267546
0.355000,-1.127294,0.185912,2.389193
0.375000,-1.119452,0.205934,2.468430
0.395000,-1.159319,0.234559,2.491747
0.415000,-1.221895,0.263259,2.455444
0.435000,-1.310804,0.278909,2.374213
0.455000,-1.434475,0.271379,2.258815
0.475000,-1.567188,0.245554,2.118704
0.495000,-1.665497,0.212632,1.967544
0.515000,-1.702435,0.176540,1.814880
0.535000,-1.684208,0.137970,1.666237
0.555000,-1.642712,0.100176,1.522429
0.575000,-1.608213,0.066187,1.381061
0.595000,-1.592564,0.037712,1.241018
0.615000,-1.590444,0.014418,1.103250
0.635000,-1.588413,-0.005874,0.968941
0.655000,-1.576609,-0.023543,0.837158
0.675000,-1.554217,-0.037851,0.703731
0.695000,-1.527626,-0.048586,0.567363
0.715000,-1.499623,-0.055619,0.431012
0.735000,-1.462064,-0.059542,0.304169
0.755000,-1.384832,-0.063279,0.208840
0.775000,-1.250951,-0.068049,0.158100
0.795000,-1.077600,-0.070502,0.131288
0.815000,-0.891369,-0.064194,0.114355
0.835000,-0.719513,-0.051672,0.109477
0.855000,-0.584967,-0.035034,0.107257
0.875000,-0.493055,-0.014789,0.107623
0.895000,-0.426975,0.008214,0.110510
0.915000,-0.368875,0.032971,0.116611
0.935000,-0.306149,0.058214,0.125776
0.955000,-0.237117,0.081869,0.136232
0.975000,-0.171836,0.103884,0.141843
0.995000,-0.113690,0.126834,0.143570
1.015000,-0.057085,0.142525,0.145846
1.035000,0.007129,0.144582,0.148591
1.055000,0.081220,0.135027,0.149230
1.075000,0.156034,0.116875,0.137191
1.095000,0.211026,0.092471,0.108491
1.115000,0.230357,0.065438,0.058952
1.135000,0.213146,0.040011,-0.009517
1.155000,0.171080,0.017698,-0.090833
1.175000,0.118534,-0.000561,-0.177470
1.195000,0.067959,-0.014013,-0.258520
1.215000,0.028987,-0.023124,-0.324190
1.235000,0.007132,-0.030163,-0.367442
1.255000,0.005594,-0.036936,-0.387592
1.275000,0.024888,-0.044023,-0.389286
1.295000,0.059044,-0.051856,-0.380908
1.315000,0.096857,-0.059913,-0.369410
1.335000,0.128475,-0.067257,-0.358851
1.355000,0.147123,-0.072855,-0.352203
1.375000,0.149318,-0.076174,-0.349894
1.395000,0.136267,-0.076820,-0.350929
1.415000,0.114374,-0.074511,-0.353026
1.435000,0.091482,-0.069484,-0.353843
1.455000,0.073093,-0.062214,-0.351371
1.475000,0.062391,-0.053344,-0.343843
1.495000,0.060570,-0.043664,-0.330219
1.515000,0.065324,-0.033830,-0.310079
1.535000,0.071910,-0.024168,-0.283791
1.555000,0.078006,-0.015125,-0.251843
1.575000,0.083447,-0.007039,-0.215240
1.595000,0.088412,-0.000293,-0.175156
1.615000,0.092882,0.004745,-0.133247
1.635000,0.095476,0.008307,-0.091006
1.655000,0.091521,0.011559,-0.048554
1.675000,0.074648,0.011126,-0.007301
1.695000,0.037713,0.004728,0.031997
1.715000,-0.025346,-0.004959,0.064574
1.735000,-0.113297,-0.014469,0.084437
1.755000,-0.216464,-0.020587,0.093686
1.775000,-0.318090,-0.022099,0.097233
1.795000,-0.396401,-0.020244,0.100367
1.815000,-0.428732,-0.016766,0.109850
1.835000,-0.407584,-0.013614,0.125852
1.855000,-0.348786,-0.012534,0.145415
1.875000,-0.275926,-0.014789,0.165790
1.895000,-0.212751,-0.021374,0.183888
1.915000,-0.184616,-0.032367,0.196559
1.935000,-0.199285,-0.046365,0.202008
1.955000,-0.254318,-0.062149,0.199280
1.975000,-0.337368,-0.078700,0.188976
1.995000,-0.433463,-0.094200,0.172425
2.015000,-0.525378,-0.106627,0.151746
2.035000,-0.597761,-0.115429,0.129123
2.055000,-0.640976,-0.121017,0.107006
2.075000,-0.652685,-0.123783,0.087257
2.095000,-0.638023,-0.124415,0.070634
2.115000,-0.608099,-0.123613,0.056995
2.135000,-0.574111,-0.121519,0.046437
2.155000,-0.543387,-0.118056,0.038695
2.175000,-0.519821,-0.112937,0.033821
2.195000,-0.504337,-0.105740,0.032378
2.215000,-0.493151,-0.096162,0.034543
2.235000,-0.478263,-0.084115,0.040374
2.255000,-0.452278,-0.069945,0.049524
2.275000,-0.410158,-0.054587,0.061014
2.372000,-0.337716,-0.044769,0.069755
2.392000,-0.275486,-0.040236,0.076127
2.412000,-0.226214,-0.040082,0.075419
2.432000,-0.192850,-0.042858,0.064076
2.452000,-0.172659,-0.046720,0.041311
2.472000,-0.161067,-0.050185,0.007766
2.492000,-0.154713,-0.052984,-0.033741
2.512000,-0.150738,-0.055277,-0.079349
2.532000,-0.148493,-0.056677,-0.125456
2.552000,-0.148050,-0.057026,-0.168044
2.572000,-0.147433,-0.056081,-0.202936
2.592000,-0.141911,-0.053709,-0.225922
2.612000,-0.125273,-0.050045,-0.234547
2.632000,-0.092932,-0.045765,-0.228393
2.652000,-0.044835,-0.041498,-0.209459
2.672000,0.013980,-0.037278,-0.181367
2.692000,0.075908,-0.033257,-0.149430
2.712000,0.133135,-0.029404,-0.118040
2.732000,0.178130,-0.025669,-0.091245
2.752000,0.205696,-0.022232,-0.072578
2.772000,0.214573,-0.019011,-0.063935
2.792000,0.207675,-0.015718,-0.064565
2.812000,0.191732,-0.012058,-0.072223
2.832000,0.173148,-0.007919,-0.083733
2.852000,0.155398,-0.003263,-0.096739
2.872000,0.139619,0.001620,-0.109783
2.892000,0.125727,0.006546,-0.121720
2.912000,0.112604,0.011373,-0.131642
2.932000,0.099062,0.016035,-0.138832
2.952000,0.085276,0.020663,-0.142691
2.972000,0.072514,0.025455,-0.142630
2.992000,0.062539,0.030356,-0.138513
3.012000,0.056912,0.035067,-0.130653
3.032000,0.056432,0.039681,-0.119724
3.052000,0.059371,0.045108,-0.105032
3.072000,0.062410,0.050402,-0.085422
3.092000,0.062277,0.053254,-0.060699
3.112000,0.055277,0.054113,-0.031578
3.132000,0.040798,0.053993,-0.001740
3.152000,0.019904,0.053150,0.024283
3.172000,-0.002935,0.052153,0.045432
3.192000,-0.020741,0.051062,0.061731
3.212000,-0.028237,0.049296,0.074550
3.232000,-0.025367,0.045801,0.084870
3.252000,-0.018675,0.040078,0.093122
3.272000,-0.017234,0.031857,0.099203
3.292000,-0.027914,0.020635,0.103397
3.312000,-0.054096,0.006230,0.106310
3.332000,-0.095945,-0.011086,0.108851
3.352000,-0.152829,-0.030997,0.110741
3.372000,-0.224639,-0.052634,0.110757
3.392000,-0.309732,-0.074203,0.107770
3.412000,-0.403036,-0.093880,0.101435
3.432000,-0.494071,-0.110091,0.092852
3.452000,-0.568625,-0.121771,0.084049
3.472000,-0.614288,-0.128414,0.077160
3.492000,-0.624594,-0.130341,0.073519
3.512000,-0.601243,-0.127887,0.073461
3.532000,-0.555444,-0.121693,0.075933
3.552000,-0.497906,-0.112683,0.080535
3.572000,-0.435992,-0.101680,0.086305
3.592000,-0.375167,-0.089085,0.092628
3.612000,-0.318686,-0.075012,0.098926
3.632000,-0.267682,-0.059652,0.104623
3.652000,-0.220158,-0.043383,0.109559
3.672000,-0.172626,-0.026537,0.113618
3.692000,-0.122804,-0.009429,0.116649
3.712000,-0.069851,0.007334,0.118483
3.732000,-0.013711,0.023183,0.118746
3.752000,0.044848,0.038463,0.117298
3.772000,0.102644,0.053521,0.114822
3.792000,0.156586,0.065505,0.112144
3.812000,0.206283,0.073945,0.109440
3.832000,0.252061,0.081000,0.105614
3.852000,0.293500,0.086144,0.098785
3.872000,0.328270,0.088367,0.088201
3.892000,0.356026,0.088209,0.072916
3.912000,0.378935,0.086653,0.052293
3.932000,0.396806,0.084630,0.026248
3.952000,0.408325,0.082702,-0.004971
3.972000,0.413079,0.081291,-0.040442
3.992000,0.412904,0.080783,-0.078153
4.012000,0.411494,0.081348,-0.114742
4.032000,0.412769,0.083130,-0.146182
4.052000,0.420389,0.085665,-0.167791
4.072000,0.436248,0.087790,-0.177800
4.092000,0.458730,0.089151,-0.176658
4.112000,0.485637,0.089376,-0.167740
4.132000,0.511774,0.088311,-0.155604
4.152000,0.531767,0.086112,-0.143247
4.172000,0.541932,0.083143,-0.132775
4.192000,0.540210,0.079782,-0.125937
4.212000,0.526372,0.076436,-0.123492
4.232000,0.501796,0.073686,-0.124996
4.252000,0.470285,0.071948,-0.129211
4.272000,0.435104,0.071459,-0.134772
4.292000,0.399094,0.072232,-0.140039
4.312000,0.365513,0.074070,-0.143711
4.332000,0.337080,0.076831,-0.144790
4.352000,0.315361,0.080383,-0.142561
4.439000,0.308231,0.084797,-0.123860
4.459000,0.301188,0.089922,-0.102336
4.479000,0.290790,0.093752,-0.078359
4.499000,0.272983,0.095292,-0.052468
4.519000,0.244052,0.095823,-0.026664
4.539000,0.203952,0.095974,-0.004530
4.559000,0.158506,0.096149,0.013770
4.579000,0.115521,0.096694,0.029027
4.599000,0.083681,0.097482,0.042035
4.619000,0.072428,0.098026,0.054594
4.639000,0.084047,0.097533,0.067028
4.659000,0.107111,0.095480,0.078531
4.679000,0.125385,0.091508,0.088292
4.699000,0.126701,0.085211,0.096467
4.719000,0.106933,0.076376,0.103457
4.739000,0.066335,0.065102,0.109161
4.759000,0.008155,0.051937,0.112976
4.779000,-0.062855,0.037864,0.113665
4.799000,-0.141125,0.024474,0.110155
4.819000,-0.216628,0.013142,0.102669
4.839000,-0.277884,0.004734,0.093191
4.859000,-0.313567,-0.000152,0.083350
4.879000,-0.322149,-0.002219,0.074890
4.899000,-0.305047,-0.001731,0.068529
4.919000,-0.270433,0.000647,0.064026
4.939000,-0.227883,0.004401,0.060998
4.959000,-0.184895,0.009262,0.058811
4.979000,-0.145845,0.015015,0.057474
4.999000,-0.112463,0.021643,0.056952
5.019000,-0.084564,0.029131,0.056826
5.039000,-0.059441,0.037481,0.056887
5.059000,-0.032537,0.046920,0.057039
5.079000,-0.000015,0.057575,0.057246
5.099000,0.040123,0.069116,0.057447
5.119000,0.085571,0.081305,0.057727
5.139000,0.133139,0.093916,0.059194
5.159000,0.183653,0.104692,0.062274
5.179000,0.235650,0.112385,0.066102
5.199000,0.282652,0.117902,0.068646
5.219000,0.318292,0.121213,0.067333
5.239000,0.339359,0.122644,0.061540
5.259000,0.350272,0.123315,0.051213
5.279000,0.360505,0.124176,0.036529
5.299000,0.376134,0.125826,0.017927
5.319000,0.395613,0.128637,-0.004730
5.339000,0.418003,0.132513,-0.030279
5.359000,0.445334,0.137233,-0.056802
5.379000,0.480783,0.142395,-0.081851
5.399000,0.526003,0.147394,-0.102542
5.419000,0.579124,0.151079,-0.117373
5.439000,0.633280,0.153111,-0.126751
5.459000,0.682630,0.153157,-0.132759
5.479000,0.719740,0.151260,-0.138715
5.499000,0.737366,0.147799,-0.146474
5.519000,0.732914,0.143680,-0.157054
5.539000,0.709635,0.139862,-0.170237
5.559000,0.675785,0.136983,-0.184448
5.579000,0.639685,0.135453,-0.197830
5.599000,0.607976,0.135480,-0.209439
5.619000,0.585341,0.136081,-0.219697
5.639000,0.575966,0.136969,-0.229349
5.659000,0.577822,0.138564,-0.239807
5.679000,0.587729,0.141558,-0.251863
5.699000,0.604246,0.145472,-0.265816
5.719000,0.624555,0.150237,-0.280033
5.739000,0.642704,0.155699,-0.293711
5.759000,0.658430,0.161504,-0.305277
5.779000,0.676271,0.167431,-0.314086
5.799000,0.699149,0.173468,-0.319756
5.819000,0.725457,0.179677,-0.321270
5.839000,0.752372,0.184256,-0.320351
5.859000,0.777271,0.186670,-0.319373
5.879000,0.795121,0.188201,-0.320980
5.899000,0.800869,0.189949,-0.326653
5.919000,0.792909,0.192697,-0.335734
5.939000,0.775661,0.196509,-0.345376
5.959000,0.758763,0.201244,-0.352812
5.979000,0.752457,0.206354,-0.357107
5.999000,0.759492,0.210768,-0.359576
6.019000,0.773900,0.213158,-0.361310
6.039000,0.786602,0.212939,-0.362498
6.059000,0.792388,0.210303,-0.362867
6.079000,0.770559,0.204165,-0.369207
6.099000,0.708345,0.195163,-0.372606
6.119000,0.632879,0.188245,-0.372794
6.139000,0.555914,0.182298,-0.373899
6.159000,0.485169,0.175050,-0.372647
6.179000,0.435886,0.165638,-0.370191
6.199000,0.412941,0.157103,-0.364612
6.219000,0.396400,0.148993,-0.356375
6.239000,0.379166,0.142802,-0.348514
6.259000,0.359054,0.139005,-0.342493
6.279000,0.334300,0.136946,-0.336068
6.299000,0.310558,0.135764,-0.329199
6.319000,0.290277,0.135362,-0.322765
6.339000,0.270810,0.135835,-0.316715
6.359000,0.253157,0.136650,-0.311402
6.379000,0.237178,0.136666,-0.307111
6.399000,0.222168,0.135608,-0.303978
6.419000,0.208719,0.134098,-0.301180
