accel_time_list,accel_x_list,accel_y_list,accel_z_list
0.410000,-9.710882,-5.942409,1.539472
0.430000,-10.020931,-5.705382,1.563414
0.450000,-10.182425,-5.296253,1.645641
0.470000,-10.132432,-4.710962,1.755800
0.490000,-9.932264,-4.099334,1.889450
0.510000,-9.723969,-3.602972,2.048192
0.530000,-9.535759,-3.364142,2.184752
0.550000,-9.392363,-3.325317,2.273748
0.570000,-9.262912,-3.431838,2.305268
0.590000,-9.158437,-3.608441,2.292268
0.610000,-9.066317,-3.789876,2.254436
0.630000,-8.986417,-3.931192,2.215149
0.650000,-8.924349,-3.999162,2.199935
0.670000,-8.876004,-4.012891,2.205242
0.690000,-8.855523,-3.986911,2.228369
0.710000,-8.855406,-3.939637,2.258454
0.730000,-8.871741,-3.894905,2.291128
0.750000,-8.896628,-3.856940,2.320899
0.770000,-8.938761,-3.812747,2.323861
0.790000,-9.088346,-3.775602,2.287883
0.810000,-9.319727,-3.767800,2.240370
0.830000,-9.448978,-3.784362,2.199916
0.850000,-9.456083,-3.803514,2.177479
0.870000,-9.402912,-3.830524,2.161252
0.890000,-9.305369,-3.877455,2.133234
0.910000,-9.185425,-3.967438,2.086234
0.930000,-9.064024,-4.096051,2.029558
0.950000,-8.957721,-4.226612,1.971897
0.970000,-8.884927,-4.307429,1.914004
0.990000,-8.850166,-4.329094,1.862704
1.010000,-8.851294,-4.286724,1.824761
1.030000,-8.869758,-4.195523,1.809641
1.050000,-8.900377,-4.085345,1.817967
1.070000,-8.939946,-3.987974,1.840752
1.090000,-8.974769,-3.924146,1.868352
1.110000,-8.990937,-3.900202,1.893149
1.130000,-8.977215,-3.899101,1.912526
1.150000,-8.937510,-3.902813,1.926437
1.170000,-8.885692,-3.893551,1.941991
1.190000,-8.836468,-3.870886,1.965002
1.210000,-8.791274,-3.838466,1.993992
1.230000,-8.744351,-3.794772,2.023803
1.250000,-8.691667,-3.745336,2.053296
1.270000,-8.633554,-3.693216,2.083139
1.290000,-8.569076,-3.641371,2.111492
1.310000,-8.497979,-3.595289,2.137745
1.330000,-8.420107,-3.563584,2.158687
1.350000,-8.336945,-3.543283,2.176876
1.370000,-8.257237,-3.536115,2.197438
1.390000,-8.188442,-3.540717,2.222833
1.410000,-8.134933,-3.545211,2.251481
1.430000,-8.100124,-3.540479,2.274794
1.450000,-8.129215,-3.531641,2.296012
1.470000,-8.208887,-3.523501,2.321705
1.490000,-8.299205,-3.511341,2.357028
1.510000,-8.375641,-3.496579,2.397141
1.530000,-8.418396,-3.477233,2.432994
1.550000,-8.433208,-3.459323,2.459000
1.570000,-8.425610,-3.446244,2.479094
1.590000,-8.402521,-3.437872,2.497701
1.610000,-8.365672,-3.438085,2.509635
1.630000,-8.317348,-3.442225,2.512896
1.650000,-8.265427,-3.446100,2.508206
1.670000,-8.219764,-3.453218,2.498039
1.690000,-8.187301,-3.467329,2.484647
1.710000,-8.178475,-3.489718,2.468831
1.730000,-8.197160,-3.517307,2.453134
1.750000,-8.235662,-3.539689,2.441380
1.770000,-8.279541,-3.552669,2.433280
1.790000,-8.319046,-3.552767,2.428995
1.810000,-8.342184,-3.538953,2.427721
1.830000,-8.354074,-3.519506,2.428906
1.850000,-8.362870,-3.511462,2.431299
1.870000,-8.374236,-3.519540,2.436453
1.890000,-8.386220,-3.547766,2.440898
1.910000,-8.399371,-3.588821,2.442196
1.930000,-8.411309,-3.630973,2.439114
1.950000,-8.424334,-3.663291,2.434813
1.970000,-8.437845,-3.681111,2.432886
1.990000,-8.455289,-3.688342,2.435826
2.010000,-8.475983,-3.685664,2.444412
2.030000,-8.497894,-3.678230,2.458409
2.050000,-8.519701,-3.667903,2.473258
2.070000,-8.544358,-3.649150,2.481700
2.090000,-8.610208,-3.628168,2.480867
2.110000,-8.731654,-3.614186,2.474847
2.130000,-8.857870,-3.604192,2.464875
2.150000,-8.918841,-3.590077,2.454992
2.170000,-8.928963,-3.580072,2.449483
2.190000,-8.897654,-3.576373,2.444886
2.210000,-8.836191,-3.588371,2.429140
2.230000,-8.764077,-3.626383,2.398084
2.250000,-8.704643,-3.687009,2.359113
2.270000,-8.680338,-3.751654,2.316555
2.290000,-8.699265,-3.790200,2.271340
2.310000,-8.761796,-3.790857,2.230190
2.330000,-8.843143,-3.755126,2.202260
2.350000,-8.907811,-3.690799,2.192592
2.370000,-8.922699,-3.608929,2.196819
2.390000,-8.889894,-3.522300,2.209224
2.422000,-8.820651,-3.458859,2.216783
2.442000,-8.741768,-3.416000,2.218620
2.462000,-8.659177,-3.395462,2.216930
2.482000,-8.577612,-3.388293,2.215463
2.502000,-8.498851,-3.382452,2.217004
2.522000,-8.419834,-3.367509,2.221260
2.542000,-8.338292,-3.343610,2.227597
2.562000,-8.260604,-3.314782,2.235221
2.582000,-8.190350,-3.283726,2.246051
2.602000,-8.125059,-3.258888,2.258774
2.622000,-8.069068,-3.245587,2.271533
2.642000,-8.025796,-3.241032,2.284361
2.662000,-8.001786,-3.246524,2.299306
2.682000,-8.000418,-3.258831,2.317356
2.702000,-8.038473,-3.268398,2.331602
2.722000,-8.187571,-3.285800,2.346525
2.742000,-8.438278,-3.324849,2.371841
2.764000,-8.643865,-3.366578,2.403972
2.784000,-8.748713,-3.390633,2.426218
2.804000,-8.768162,-3.394879,2.437599
2.824000,-8.763038,-3.389997,2.450703
2.844000,-8.761236,-3.384622,2.468651
2.864000,-8.742826,-3.386179,2.481642
2.884000,-8.717682,-3.394706,2.487756
2.904000,-8.691271,-3.407825,2.488820
2.924000,-8.660474,-3.421590,2.485740
2.944000,-8.627539,-3.439753,2.479862
2.964000,-8.599828,-3.464750,2.471514
2.984000,-8.585095,-3.496083,2.459971
3.004000,-8.591679,-3.528310,2.444749
3.024000,-8.616012,-3.554155,2.429053
3.044000,-8.651234,-3.571596,2.415512
3.064000,-8.684173,-3.575806,2.404243
3.084000,-8.703859,-3.565459,2.394115
3.104000,-8.712313,-3.547856,2.386339
3.124000,-8.717294,-3.536250,2.380477
3.144000,-8.720187,-3.535585,2.374161
3.164000,-8.719704,-3.544363,2.364108
3.184000,-8.721039,-3.562334,2.349539
3.204000,-8.725136,-3.582830,2.332769
3.224000,-8.729566,-3.598874,2.316808
3.244000,-8.729898,-3.604988,2.302674
3.264000,-8.729506,-3.600041,2.288936
3.284000,-8.741385,-3.586330,2.278129
3.304000,-8.744511,-3.562364,2.268981
3.324000,-8.737170,-3.531513,2.262507
3.344000,-8.717782,-3.499063,2.257481
3.364000,-8.694304,-3.465337,2.252847
3.384000,-8.681843,-3.442232,2.247614
3.404000,-8.677791,-3.435086,2.242885
3.424000,-8.666043,-3.441252,2.240613
3.444000,-8.641892,-3.452124,2.242112
3.464000,-8.609514,-3.457340,2.247009
3.484000,-8.573626,-3.455297,2.255302
3.504000,-8.542253,-3.445661,2.268044
3.524000,-8.520624,-3.429214,2.285382
3.544000,-8.508324,-3.409040,2.304979
3.564000,-8.498417,-3.387982,2.325423
3.584000,-8.485941,-3.367798,2.347402
3.604000,-8.469295,-3.348155,2.372705
3.624000,-8.448572,-3.334624,2.398624
3.644000,-8.425694,-3.328070,2.423430
3.664000,-8.402416,-3.331117,2.446573
3.684000,-8.385468,-3.341437,2.466758
3.704000,-8.381006,-3.360503,2.483178
3.724000,-8.394413,-3.386865,2.497014
3.744000,-8.420892,-3.418051,2.508769
3.764000,-8.449390,-3.448363,2.518128
3.784000,-8.466638,-3.470381,2.524028
3.804000,-8.474169,-3.481048,2.526976
3.824000,-8.472027,-3.478219,2.528151
3.844000,-8.468694,-3.465506,2.529441
3.864000,-8.471504,-3.454385,2.533849
3.884000,-8.479862,-3.448225,2.541430
3.904000,-8.497031,-3.446127,2.551178
3.924000,-8.524838,-3.450505,2.560058
3.944000,-8.558246,-3.452799,2.564523
3.964000,-8.592933,-3.448625,2.564602
3.984000,-8.627316,-3.438418,2.560509
4.004000,-8.656890,-3.424535,2.552653
4.024000,-8.677659,-3.412318,2.540581
4.044000,-8.686247,-3.401289,2.523394
4.064000,-8.683892,-3.395873,2.501120
4.084000,-8.674459,-3.399652,2.474339
4.104000,-8.657552,-3.414579,2.442800
4.124000,-8.637108,-3.438271,2.405503
4.144000,-8.617177,-3.468608,2.362292
4.164000,-8.600043,-3.502205,2.314545
4.184000,-8.586119,-3.534483,2.263931
4.204000,-8.575177,-3.559494,2.213985
4.224000,-8.564588,-3.574536,2.167226
4.244000,-8.555581,-3.581864,2.125705
4.264000,-8.548364,-3.585006,2.090784
4.284000,-8.543512,-3.587852,2.061646
4.304000,-8.541055,-3.590600,2.035615
4.324000,-8.540498,-3.592822,2.011635
4.344000,-8.541430,-3.594840,1.988784
4.364000,-8.544918,-3.595908,1.968234
4.384000,-8.551361,-3.595791,1.951330
4.404000,-8.559249,-3.594357,1.938056
4.451000,-8.561984,-3.590429,1.929726
4.471000,-8.560485,-3.586755,1.921970
4.491000,-8.555440,-3.583643,1.913639
4.511000,-8.552812,-3.578787,1.901820
4.531000,-8.564878,-3.574642,1.885902
4.551000,-8.575830,-3.574891,1.872273
4.571000,-8.572681,-3.575823,1.864371
4.591000,-8.559100,-3.575454,1.858311
4.611000,-8.536097,-3.573398,1.850278
4.631000,-8.509635,-3.574184,1.839140
4.651000,-8.484974,-3.580444,1.823354
4.671000,-8.469670,-3.590647,1.805201
4.691000,-8.469157,-3.604369,1.787972
4.711000,-8.483182,-3.618313,1.775443
4.731000,-8.502201,-3.630002,1.768874
4.751000,-8.518308,-3.636953,1.766597
4.771000,-8.528546,-3.636741,1.767746
4.791000,-8.540225,-3.628024,1.769430
4.811000,-8.564488,-3.613651,1.770918
4.831000,-8.608582,-3.598557,1.774791
4.851000,-8.669980,-3.583934,1.784105
4.871000,-8.733481,-3.564691,1.799084
4.891000,-8.781299,-3.535043,1.817344
4.911000,-8.807674,-3.494905,1.836574
4.931000,-8.813382,-3.448986,1.854258
4.951000,-8.802657,-3.408820,1.866485
4.971000,-8.783659,-3.381724,1.871113
4.991000,-8.758521,-3.372668,1.868660
5.011000,-8.729029,-3.379130,1.863225
5.031000,-8.695481,-3.393225,1.858669
5.051000,-8.656851,-3.406821,1.858571
5.071000,-8.612160,-3.412519,1.865857
5.091000,-8.559294,-3.409333,1.880147
5.111000,-8.499942,-3.395564,1.899020
5.131000,-8.434241,-3.373102,1.921600
5.151000,-8.369913,-3.348407,1.947059
5.171000,-8.318798,-3.329765,1.976478
5.191000,-8.295840,-3.320188,2.006299
5.211000,-8.320889,-3.330678,2.033035
5.231000,-8.378544,-3.368980,2.064998
5.251000,-8.436509,-3.428838,2.104563
5.271000,-8.480366,-3.474385,2.155107
5.291000,-8.525593,-3.541830,2.193490
5.311000,-8.561759,-3.581908,2.225230
5.331000,-8.573468,-3.587906,2.249003
5.351000,-8.572734,-3.594031,2.253753
5.371000,-8.561292,-3.616583,2.242613
5.391000,-8.530800,-3.642359,2.219495
5.411000,-8.478218,-3.666589,2.187137
5.431000,-8.412297,-3.687477,2.149127
5.451000,-8.333244,-3.715083,2.107837
5.471000,-8.250352,-3.748687,2.064803
5.491000,-8.176140,-3.787389,2.022569
5.511000,-8.119969,-3.831532,1.982715
5.531000,-8.084665,-3.884036,1.944595
5.551000,-8.074371,-3.938083,1.905455
5.571000,-8.092700,-3.995343,1.865545
5.591000,-8.136757,-4.055029,1.828513
5.611000,-8.194740,-4.103226,1.793101
5.631000,-8.238002,-4.111062,1.759138
5.651000,-8.259153,-4.066443,1.733643
5.671000,-8.264133,-3.986295,1.727329
5.691000,-8.263114,-3.892986,1.738277
5.711000,-8.260707,-3.816969,1.752080
5.731000,-8.253956,-3.771394,1.757124
5.751000,-8.241241,-3.763300,1.746058
5.771000,-8.220453,-3.785631,1.718787
5.791000,-8.190252,-3.825068,1.680314
5.811000,-8.151707,-3.872552,1.638233
5.831000,-8.110706,-3.924733,1.598222
5.851000,-8.075298,-3.969050,1.565302
5.871000,-8.050339,-4.001989,1.540956
5.891000,-8.049879,-4.016431,1.522410
5.911000,-8.094934,-4.016678,1.508148
5.931000,-8.160424,-4.014950,1.505502
5.951000,-8.196158,-4.009286,1.516259
5.971000,-8.215665,-3.994421,1.537633
5.991000,-8.244298,-3.981635,1.565203
6.011000,-8.293527,-3.995161,1.594607
6.031000,-8.351599,-4.045482,1.620316
6.051000,-8.399168,-4.112460,1.638702
6.071000,-8.431946,-4.161715,1.654660
6.091000,-8.457826,-4.178897,1.672272
6.111000,-8.479890,-4.156096,1.692864
6.131000,-8.496578,-4.101183,1.716306
6.151000,-8.510188,-4.026777,1.742262
6.171000,-8.523838,-3.948758,1.768990
6.191000,-8.539855,-3.876192,1.794734
6.211000,-8.562350,-3.819600,1.819371
6.231000,-8.588954,-3.775044,1.844284
6.251000,-8.608665,-3.738528,1.866578
6.271000,-8.608894,-3.705417,1.887829
6.291000,-8.590324,-3.667356,1.910068
6.311000,-8.558304,-3.630408,1.934642
6.331000,-8.516751,-3.595588,1.960544
6.351000,-8.467928,-3.568830,1.986578
6.371000,-8.418615,-3.553339,2.012968
6.391000,-8.368921,-3.546501,2.040545
6.411000,-8.320584,-3.539812,2.073713
6.431000,-8.271692,-3.527154,2.115541
