accel_time_list,accel_x_list,accel_y_list,accel_z_list
0.425000,-0.907402,-9.674969,3.224990
0.445000,-0.926556,-9.623493,3.241749
0.465000,-0.940127,-9.541636,3.246538
0.485000,-0.912180,-9.454453,3.242946
0.505000,-0.906908,-9.399657,3.240311
0.525000,-0.904593,-9.369941,3.249732
0.545000,-0.898146,-9.354582,3.263995
0.565000,-0.894209,-9.353623,3.290885
0.585000,-0.903405,-9.361177,3.320907
0.605000,-0.909324,-9.362397,3.343280
0.625000,-0.905221,-9.374558,3.357876
0.645000,-0.883597,-9.380478,3.349329
0.665000,-0.872667,-9.381220,3.330586
0.685000,-0.862088,-9.371014,3.322623
0.705000,-0.869148,-9.383707,3.335076
0.725000,-0.873667,-9.405991,3.337803
0.745000,-0.871410,-9.421852,3.332517
0.765000,-0.873290,-9.440551,3.330511
0.785000,-0.879670,-9.445276,3.326679
0.805000,-0.882396,-9.439188,3.330859
0.825000,-0.884057,-9.425107,3.329796
0.845000,-0.884139,-9.410850,3.326959
0.865000,-0.889671,-9.383577,3.338583
0.885000,-0.893235,-9.376076,3.346322
0.905000,-0.895740,-9.366621,3.343438
0.925000,-0.897030,-9.355716,3.345450
0.945000,-0.898939,-9.349813,3.355319
0.965000,-0.903044,-9.344247,3.370149
0.985000,-0.909035,-9.336261,3.386775
1.005000,-0.911241,-9.339264,3.394494
1.025000,-0.914243,-9.345416,3.401641
1.045000,-0.916375,-9.352341,3.406960
1.065000,-0.917790,-9.361396,3.406438
1.085000,-0.919050,-9.365988,3.404934
1.105000,-0.916842,-9.365425,3.405907
1.125000,-0.913408,-9.362141,3.406346
1.145000,-0.909568,-9.360310,3.403708
1.165000,-0.905161,-9.356881,3.401015
1.185000,-0.898355,-9.351597,3.398398
1.205000,-0.890049,-9.348064,3.397757
1.225000,-0.880519,-9.341436,3.397748
1.245000,-0.871593,-9.337132,3.401013
1.265000,-0.861345,-9.334882,3.409385
1.285000,-0.849961,-9.333357,3.415323
1.305000,-0.839487,-9.330132,3.418533
1.325000,-0.829494,-9.331812,3.422732
1.345000,-0.822133,-9.341469,3.427333
1.365000,-0.817469,-9.352829,3.429629
1.385000,-0.813454,-9.358797,3.429048
1.405000,-0.813617,-9.361514,3.429978
1.425000,-0.818690,-9.365355,3.431502
1.445000,-0.826614,-9.368322,3.432442
1.465000,-0.836678,-9.367614,3.433066
1.485000,-0.845463,-9.363578,3.429586
1.505000,-0.851410,-9.355566,3.425420
1.525000,-0.861510,-9.349312,3.424502
1.545000,-0.875319,-9.352201,3.426055
1.565000,-0.887657,-9.354684,3.426270
1.585000,-0.894327,-9.350248,3.423996
1.605000,-0.899700,-9.344562,3.424322
1.625000,-0.902815,-9.337595,3.428421
1.645000,-0.905993,-9.331828,3.437044
1.665000,-0.905482,-9.333100,3.441145
1.685000,-0.905757,-9.336928,3.448249
1.705000,-0.903433,-9.338236,3.455928
1.725000,-0.899689,-9.341518,3.463017
1.745000,-0.898419,-9.351243,3.468403
1.765000,-0.890973,-9.353865,3.473079
1.785000,-0.880823,-9.350321,3.466902
1.805000,-0.874623,-9.346289,3.457609
1.825000,-0.871102,-9.351503,3.461612
1.845000,-0.863158,-9.354528,3.464900
1.865000,-0.852523,-9.352357,3.466865
1.885000,-0.846429,-9.352138,3.465787
1.905000,-0.840350,-9.353444,3.462681
1.925000,-0.834668,-9.352227,3.464704
1.945000,-0.829858,-9.349799,3.472896
1.965000,-0.824964,-9.343946,3.477026
1.985000,-0.821754,-9.338756,3.482796
2.005000,-0.820941,-9.337890,3.488498
2.025000,-0.820183,-9.336885,3.492428
2.045000,-0.819674,-9.335018,3.495084
2.065000,-0.819695,-9.332569,3.496635
2.085000,-0.820065,-9.331918,3.498147
2.105000,-0.821431,-9.331007,3.499654
2.125000,-0.822576,-9.330633,3.502067
2.145000,-0.823478,-9.329850,3.505478
2.165000,-0.823450,-9.328258,3.507501
2.185000,-0.822195,-9.326029,3.509684
2.205000,-0.822863,-9.326253,3.512840
2.225000,-0.825094,-9.328789,3.517026
2.245000,-0.826089,-9.331780,3.520611
2.265000,-0.824485,-9.332745,3.522018
2.285000,-0.820795,-9.331216,3.522354
2.305000,-0.819312,-9.329280,3.521653
2.325000,-0.820973,-9.329045,3.526660
2.345000,-0.824330,-9.332127,3.533677
2.365000,-0.827048,-9.336163,3.539601
2.385000,-0.822659,-9.330931,3.532596
2.405000,-0.820980,-9.323813,3.527989
2.446000,-0.821009,-9.322206,3.530562
2.466000,-0.820197,-9.322500,3.532397
2.486000,-0.818959,-9.321118,3.533487
2.506000,-0.816742,-9.320324,3.534217
2.526000,-0.816815,-9.321209,3.535009
2.546000,-0.817569,-9.322576,3.536650
2.566000,-0.818583,-9.323521,3.538661
2.586000,-0.820445,-9.324447,3.540785
2.606000,-0.822690,-9.325015,3.542572
2.626000,-0.825405,-9.325981,3.544447
2.646000,-0.827541,-9.325880,3.546776
2.666000,-0.828822,-9.324582,3.548603
2.686000,-0.830207,-9.323729,3.550109
2.706000,-0.831769,-9.323746,3.552101
2.726000,-0.834249,-9.323619,3.552374
2.746000,-0.835483,-9.323158,3.551183
2.766000,-0.837328,-9.322008,3.551129
2.786000,-0.839225,-9.320581,3.550860
2.806000,-0.840602,-9.318427,3.551816
2.826000,-0.841940,-9.315624,3.553432
2.846000,-0.843025,-9.312250,3.554193
2.866000,-0.844220,-9.310730,3.556528
2.886000,-0.845881,-9.310278,3.559102
2.906000,-0.847598,-9.309783,3.561531
2.926000,-0.848723,-9.310131,3.562715
2.946000,-0.849836,-9.310762,3.563432
2.966000,-0.851369,-9.311770,3.564620
2.986000,-0.853630,-9.313128,3.566012
3.006000,-0.855365,-9.314040,3.567606
3.026000,-0.856340,-9.313819,3.568154
3.046000,-0.856324,-9.312403,3.566614
3.066000,-0.856523,-9.311934,3.565400
3.086000,-0.857080,-9.312524,3.561828
3.106000,-0.858780,-9.313323,3.557502
3.126000,-0.860966,-9.315216,3.553986
3.146000,-0.863035,-9.316012,3.549307
3.166000,-0.864197,-9.316034,3.544101
3.186000,-0.863934,-9.315649,3.540000
3.206000,-0.864106,-9.315101,3.538789
3.226000,-0.864539,-9.313097,3.539195
3.246000,-0.865039,-9.311377,3.539476
3.266000,-0.866229,-9.309434,3.537265
3.286000,-0.868341,-9.309282,3.535148
3.306000,-0.870000,-9.310665,3.532812
3.326000,-0.872050,-9.312799,3.530476
3.346000,-0.874271,-9.314841,3.529073
3.366000,-0.875943,-9.317006,3.526679
3.386000,-0.877622,-9.318287,3.523112
3.406000,-0.878878,-9.319100,3.518430
3.426000,-0.879522,-9.319762,3.513294
3.446000,-0.880448,-9.322884,3.506915
3.466000,-0.881747,-9.329350,3.501151
3.486000,-0.882889,-9.334266,3.495013
3.506000,-0.883589,-9.331544,3.484221
3.526000,-0.885120,-9.325377,3.470256
3.546000,-0.885056,-9.323247,3.456575
3.566000,-0.884944,-9.326740,3.446310
3.586000,-0.884857,-9.330295,3.436603
3.606000,-0.883479,-9.329839,3.425149
3.626000,-0.883191,-9.330321,3.413882
3.646000,-0.884032,-9.333792,3.404954
3.666000,-0.884960,-9.339622,3.396714
3.686000,-0.885280,-9.341802,3.385995
3.706000,-0.885693,-9.342284,3.372653
3.726000,-0.888232,-9.346138,3.360163
3.746000,-0.892326,-9.352371,3.348373
3.766000,-0.894991,-9.358470,3.337754
3.786000,-0.896791,-9.360390,3.327097
3.806000,-0.899770,-9.363440,3.315996
3.826000,-0.903151,-9.367489,3.303857
3.846000,-0.906449,-9.373556,3.293013
3.866000,-0.906962,-9.376116,3.280601
3.886000,-0.906607,-9.375752,3.267787
3.906000,-0.905418,-9.374675,3.254119
3.926000,-0.905007,-9.373727,3.239367
3.946000,-0.907760,-9.375207,3.229023
3.966000,-0.913048,-9.381173,3.217754
3.986000,-0.922472,-9.386337,3.209878
4.006000,-0.926679,-9.388242,3.197220
4.026000,-0.927348,-9.384860,3.190196
4.046000,-0.926454,-9.379381,3.184510
4.066000,-0.928107,-9.376040,3.179648
4.086000,-0.933934,-9.378503,3.176677
4.106000,-0.940133,-9.382568,3.170816
4.126000,-0.944737,-9.387599,3.161302
4.146000,-0.949512,-9.391263,3.154110
4.166000,-0.954813,-9.395058,3.149623
4.186000,-0.958840,-9.395630,3.145301
4.206000,-0.963473,-9.396220,3.140137
4.226000,-0.967150,-9.396877,3.135478
4.246000,-0.971221,-9.396689,3.131346
4.266000,-0.975467,-9.396791,3.127446
4.286000,-0.980221,-9.398208,3.122987
4.306000,-0.984497,-9.398509,3.119075
4.326000,-0.988658,-9.398066,3.116518
4.346000,-0.991365,-9.396118,3.112551
4.366000,-0.993997,-9.394765,3.108049
4.386000,-0.998063,-9.394861,3.104598
4.406000,-1.001873,-9.394861,3.102713
4.426000,-1.004424,-9.393089,3.100872
4.472000,-1.006423,-9.395501,3.096582
4.492000,-1.009095,-9.398392,3.093078
4.512000,-1.012173,-9.396130,3.092266
4.532000,-1.014836,-9.394321,3.091822
4.552000,-1.017305,-9.394159,3.089275
4.572000,-1.019606,-9.395651,3.085125
4.592000,-1.021931,-9.399234,3.081257
4.612000,-1.023515,-9.401081,3.078408
4.632000,-1.025227,-9.399176,3.077264
4.652000,-1.026180,-9.396690,3.077305
4.672000,-1.027913,-9.393847,3.076005
4.692000,-1.029437,-9.392564,3.075244
4.712000,-1.030851,-9.392012,3.074994
4.732000,-1.031603,-9.392064,3.075225
4.752000,-1.030792,-9.391900,3.075549
4.772000,-1.030636,-9.392217,3.076660
4.792000,-1.031654,-9.391621,3.077952
4.812000,-1.033141,-9.391006,3.079231
4.832000,-1.033056,-9.389968,3.079947
4.852000,-1.032925,-9.389682,3.080727
4.872000,-1.033729,-9.389565,3.081188
4.892000,-1.035770,-9.391653,3.083057
4.912000,-1.037455,-9.393480,3.084883
4.932000,-1.039123,-9.392680,3.086499
4.952000,-1.039530,-9.392918,3.087573
4.972000,-1.039621,-9.392003,3.089450
4.992000,-1.040526,-9.392151,3.092122
5.012000,-1.040703,-9.392058,3.094528
5.032000,-1.040256,-9.391296,3.096144
5.052000,-1.040220,-9.390518,3.097744
5.072000,-1.039969,-9.389651,3.100237
5.092000,-1.039865,-9.389248,3.103304
5.112000,-1.040144,-9.389160,3.105647
5.132000,-1.039966,-9.389026,3.106864
5.152000,-1.039143,-9.386786,3.109434
5.172000,-1.038951,-9.384137,3.112768
5.192000,-1.038330,-9.383142,3.116859
5.212000,-1.038098,-9.383618,3.120646
5.232000,-1.037365,-9.384856,3.124227
5.252000,-1.036114,-9.384573,3.127222
5.272000,-1.034875,-9.382736,3.130714
5.292000,-1.034222,-9.381182,3.135152
5.312000,-1.032739,-9.379738,3.138086
5.332000,-1.030169,-9.379147,3.139362
5.352000,-1.028773,-9.379759,3.142133
5.372000,-1.026961,-9.380604,3.144805
5.392000,-1.026053,-9.380315,3.146493
5.412000,-1.025249,-9.379862,3.146871
5.432000,-1.024382,-9.379270,3.148299
5.452000,-1.022997,-9.380718,3.148922
5.472000,-1.022344,-9.381099,3.150257
5.492000,-1.022032,-9.380423,3.152178
5.512000,-1.020958,-9.379417,3.153792
5.532000,-1.019870,-9.379117,3.156156
5.552000,-1.018602,-9.377383,3.159167
5.572000,-1.015670,-9.375619,3.163081
5.592000,-1.011906,-9.374016,3.166837
5.612000,-1.009161,-9.372429,3.170698
5.632000,-1.008479,-9.371863,3.174928
5.652000,-1.007276,-9.371375,3.178398
5.672000,-1.006014,-9.373190,3.181306
5.692000,-1.004430,-9.375274,3.184041
5.712000,-1.002286,-9.377241,3.186342
5.732000,-1.000595,-9.377297,3.189601
5.752000,-0.999376,-9.377568,3.192517
5.772000,-0.996924,-9.379465,3.193368
5.792000,-0.993994,-9.379978,3.193804
5.812000,-0.991428,-9.378523,3.195361
5.832000,-0.988481,-9.376723,3.196040
5.852000,-0.985395,-9.375684,3.196450
5.872000,-0.982604,-9.373984,3.197669
5.892000,-0.979195,-9.373738,3.199282
5.912000,-0.977400,-9.372728,3.201646
5.932000,-0.974808,-9.372064,3.204298
5.952000,-0.970639,-9.371645,3.206947
5.972000,-0.968354,-9.371446,3.210001
5.992000,-0.968271,-9.371584,3.214173
6.012000,-0.966968,-9.372894,3.217561
6.032000,-0.964769,-9.373928,3.219263
6.052000,-0.964195,-9.375790,3.221164
6.072000,-0.962909,-9.376100,3.224099
6.092000,-0.960247,-9.376096,3.226933
6.112000,-0.958833,-9.376810,3.229188
6.132000,-0.957385,-9.376847,3.230679
6.152000,-0.954898,-9.375950,3.232441
6.172000,-0.950568,-9.375492,3.233468
6.192000,-0.946401,-9.376188,3.233766
6.212000,-0.942612,-9.373693,3.234588
6.232000,-0.939267,-9.367632,3.237437
6.252000,-0.936745,-9.365941,3.239276
6.272000,-0.934082,-9.367379,3.240785
6.292000,-0.930319,-9.372131,3.239454
6.312000,-0.923387,-9.377817,3.235790
6.332000,-0.922987,-9.374707,3.235945
6.352000,-0.922903,-9.368995,3.240959
6.372000,-0.922174,-9.369613,3.245229
6.392000,-0.918482,-9.375970,3.245098
6.412000,-0.908962,-9.383126,3.240468
6.432000,-0.903392,-9.389660,3.234998
6.452000,-0.904534,-9.388946,3.236191
