gyro_time_list,gyro_x_list,gyro_y_list,gyro_z_list
0.683,-0.299104,0.138427,0.086067
0.703,-0.3045,0.153016,0.102322
0.723,-0.30128,0.180678,0.109832
0.743,-0.292539,0.208383,0.146495
0.763,-0.273712,0.251958,0.198933
0.783,-0.26116,0.295612,0.287586
0.803,-0.276742,0.304095,0.312203
0.823,-0.304899,0.302921,0.40266
0.843,-0.308234,0.308386,0.489188
0.863,-0.273241,0.307094,0.590324
0.883,-0.214763,0.292199,0.69434
0.903,-0.137532,0.268165,0.7972
0.923,-0.038399,0.24534,0.894145
0.943,0.079544,0.21777,0.981891
0.963,0.212836,0.178078,1.063479
0.983,0.354453,0.134715,1.138682
1.003,0.499898,0.093809,1.209933
1.023,0.619243,0.051149,1.278087
1.043,0.708505,0.001638,1.344007
1.063,0.779715,-0.051781,1.405089
1.083,0.8359,-0.103968,1.461014
1.103,0.874498,-0.156168,1.515952
1.123,0.895136,-0.209782,1.567937
1.143,0.905786,-0.262845,1.61626
1.163,0.908277,-0.313728,1.661824
1.183,0.91051,-0.364195,1.704107
1.203,0.910536,-0.412861,1.739827
1.223,0.904401,-0.454206,1.76776
1.243,0.892009,-0.488312,1.788479
1.263,0.86704,-0.520196,1.801053
1.283,0.827902,-0.548548,1.803963
1.303,0.78225,-0.569216,1.800103
1.323,0.737191,-0.584091,1.792292
1.343,0.692504,-0.598922,1.779493
1.363,0.648138,-0.611586,1.761413
1.383,0.607891,-0.620169,1.739742
1.403,0.571756,-0.626928,1.71394
1.423,0.535603,-0.633604,1.683242
1.443,0.502314,-0.639439,1.649446
1.463,0.472308,-0.644487,1.612405
1.483,0.443528,-0.649946,1.5714
1.503,0.413473,-0.656702,1.526577
1.524,0.381858,-0.664067,1.477995
1.544,0.351587,-0.670297,1.4262
1.564,0.323462,-0.674894,1.371731
1.584,0.297826,-0.678074,1.315331
1.604,0.274027,-0.679854,1.257646
1.624,0.25079,-0.679193,1.198698
1.644,0.229641,-0.675753,1.13833
1.664,0.212519,-0.67046,1.078135
1.684,0.198487,-0.663352,1.018253
1.704,0.187122,-0.653684,0.959614
1.724,0.178598,-0.641876,0.903166
1.744,0.171989,-0.629008,0.848592
1.764,0.165668,-0.614833,0.795961
1.784,0.158519,-0.598356,0.745775
1.804,0.151879,-0.580205,0.697223
1.824,0.146882,-0.56183,0.650856
1.844,0.143374,-0.542866,0.607541
1.864,0.140242,-0.522597,0.568215
1.884,0.137004,-0.502337,0.531874
1.904,0.132783,-0.482161,0.498279
1.924,0.128248,-0.461053,0.467669
1.944,0.124741,-0.440077,0.439494
1.964,0.121413,-0.42066,0.413046
1.984,0.117298,-0.402206,0.388451
2.004,0.11197,-0.384208,0.365745
2.024,0.106581,-0.366976,0.344671
2.044,0.101917,-0.350323,0.324976
2.064,0.098401,-0.334216,0.306564
2.084,0.095429,-0.319175,0.288876
2.104,0.09135,-0.30608,0.271715
2.124,0.0845,-0.295523,0.254234
2.144,0.073099,-0.287654,0.236309
2.164,0.05636,-0.283379,0.216421
2.184,0.03304,-0.282474,0.193917
2.204,0.002182,-0.282966,0.17013
2.224,-0.0347,-0.283778,0.145474
2.244,-0.074203,-0.284448,0.119121
2.264,-0.111924,-0.287135,0.089877
2.284,-0.143891,-0.294581,0.055026
2.304,-0.169544,-0.301999,0.015438
2.324,-0.186414,-0.305037,-0.023259
2.344,-0.19229,-0.302978,-0.058165
2.364,-0.194009,-0.301215,-0.092448
2.384,-0.204949,-0.306285,-0.134477
2.404,-0.24443,-0.316454,-0.190716
2.424,-0.30692,-0.318611,-0.255023
2.444,-0.360874,-0.302388,-0.309886
2.464,-0.40682,-0.265871,-0.34777
2.484,-0.465641,-0.215271,-0.364781
2.504,-0.53588,-0.149822,-0.347581
2.524,-0.598391,-0.065343,-0.309034
2.544,-0.634354,0.042238,-0.253613
2.564,-0.648568,0.166286,-0.184379
2.584,-0.654974,0.30235,-0.112038
2.604,-0.656917,0.449691,-0.025071
2.624,-0.687146,0.607094,0.061614
2.644,-0.783393,0.7729,0.108424
2.664,-0.75921,0.945074,0.189157
2.842,-0.716957,0.926137,0.208868
2.862,-0.66727,0.902604,0.214402
2.882,-0.615191,0.873592,0.228991
2.902,-0.576531,0.855227,0.252169
2.922,-0.539011,0.848053,0.263455
2.942,-0.508896,0.840753,0.259601
2.962,-0.502199,0.830752,0.24258
2.982,-0.50269,0.823904,0.215516
3.002,-0.487991,0.816223,0.177668
3.022,-0.47422,0.807341,0.133702
3.042,-0.474645,0.794915,0.084596
3.062,-0.487656,0.768416,0.037735
3.082,-0.500739,0.728619,-0.004803
3.102,-0.504359,0.693222,-0.0413
3.122,-0.499506,0.669329,-0.060884
3.142,-0.48313,0.654399,-0.062974
3.162,-0.464611,0.651707,-0.067814
3.182,-0.458779,0.66332,-0.079538
3.202,-0.449917,0.681394,-0.087903
3.222,-0.428115,0.701226,-0.094096
3.242,-0.402877,0.715444,-0.098848
3.262,-0.380322,0.717606,-0.103829
3.282,-0.361326,0.703195,-0.112012
3.302,-0.34623,0.670432,-0.117473
3.322,-0.328534,0.621352,-0.119198
3.342,-0.302338,0.558764,-0.114015
3.362,-0.266286,0.485105,-0.108404
3.382,-0.219585,0.412407,-0.109524
3.402,-0.159943,0.366214,-0.122116
3.422,-0.094626,0.349071,-0.143527
3.442,-0.037491,0.333738,-0.16716
3.462,0.005053,0.315394,-0.190343
3.482,0.037674,0.300866,-0.206118
3.502,0.059228,0.286379,-0.214603
3.525,0.073948,0.272345,-0.215125
3.545,0.078275,0.26013,-0.212662
3.565,0.073447,0.251213,-0.209458
3.585,0.067025,0.244286,-0.205559
3.605,0.063293,0.237778,-0.201601
3.625,0.061981,0.231282,-0.198246
3.645,0.062373,0.225114,-0.195168
3.665,0.062926,0.219074,-0.191906
3.685,0.062077,0.213483,-0.188357
3.705,0.06018,0.208618,-0.184678
3.725,0.057319,0.204412,-0.180986
3.745,0.05423,0.200597,-0.177293
3.765,0.05186,0.19689,-0.173764
3.785,0.049878,0.193243,-0.170375
3.805,0.047565,0.189767,-0.16711
3.825,0.04508,0.186258,-0.164061
3.845,0.042737,0.182762,-0.161233
3.865,0.040777,0.179243,-0.15855
3.885,0.039217,0.175766,-0.155974
3.905,0.037754,0.172333,-0.153495
3.925,0.036279,0.169059,-0.15107
3.945,0.034783,0.165914,-0.148694
3.965,0.033246,0.162833,-0.146376
3.985,0.0318,0.159822,-0.144119
4.005,0.030479,0.156934,-0.141939
4.025,0.029158,0.154222,-0.139811
4.045,0.027788,0.151647,-0.137703
4.065,0.026418,0.149204,-0.135629
4.085,0.025126,0.146885,-0.133625
4.105,0.023814,0.144638,-0.131666
4.125,0.022366,0.142465,-0.129742
4.145,0.021062,0.140398,-0.12788
4.165,0.019894,0.138369,-0.126081
4.185,0.018767,0.136371,-0.124352
4.205,0.017634,0.134394,-0.122688
4.225,0.016596,0.132463,-0.12106
4.245,0.015649,0.130586,-0.119505
4.265,0.014826,0.12867,-0.117998
4.285,0.013885,0.126882,-0.116494
4.305,0.012878,0.125229,-0.115017
4.325,0.011881,0.123578,-0.113582
4.345,0.010894,0.122002,-0.11219
4.365,0.009899,0.120406,-0.110758
4.385,0.008852,0.118866,-0.109276
4.405,0.007756,0.117459,-0.107751
4.425,0.006892,0.116006,-0.106296
4.445,0.006083,0.114462,-0.104897
4.465,0.004919,0.112921,-0.103366
4.485,0.003899,0.111639,-0.101782
4.505,0.003422,0.110329,-0.100316
4.525,0.002761,0.10895,-0.098927
4.545,0.001626,0.107699,-0.097547
4.565,0.000467,0.106581,-0.096196
4.585,-0.00037,0.10543,-0.094939
4.605,-0.001345,0.104335,-0.093702
4.625,-0.002338,0.103232,-0.092495
4.645,-0.003056,0.102078,-0.091392
4.665,-0.004012,0.100971,-0.090394
4.685,-0.005069,0.100192,-0.089491
4.705,-0.005482,0.099183,-0.088581
4.725,-0.005917,0.097908,-0.087533
4.745,-0.007535,0.097034,-0.086463
4.765,-0.008864,0.096208,-0.085356
4.785,-0.009657,0.095231,-0.084119
4.805,-0.010309,0.094235,-0.083111
4.825,-0.010945,0.093221,-0.08218
4.911,-0.01189,0.092274,-0.080976
4.931,-0.012982,0.091305,-0.079709
4.951,-0.014178,0.090407,-0.078527
4.971,-0.015277,0.089522,-0.077526
4.991,-0.016175,0.088441,-0.076584
5.011,-0.016942,0.087344,-0.075644
5.031,-0.017526,0.086428,-0.074775
5.051,-0.01786,0.085485,-0.074069
5.071,-0.018005,0.084397,-0.07343
5.091,-0.018168,0.083393,-0.072814
5.111,-0.018338,0.082485,-0.072267
5.131,-0.018336,0.081477,-0.071769
5.151,-0.018273,0.080389,-0.07121
5.171,-0.018269,0.079518,-0.070622
5.191,-0.018367,0.078787,-0.070023
5.211,-0.018309,0.077969,-0.069506
5.231,-0.018155,0.077026,-0.068984
5.251,-0.018196,0.076276,-0.068443
5.271,-0.018374,0.075647,-0.067896
5.291,-0.018635,0.075032,-0.067365
5.311,-0.018976,0.074412,-0.066802
5.331,-0.019423,0.073899,-0.066162
5.351,-0.019942,0.073428,-0.065498
5.371,-0.02035,0.072918,-0.064879
5.391,-0.020639,0.072363,-0.06429
5.411,-0.020881,0.071854,-0.063711
5.431,-0.021081,0.071383,-0.063164
5.451,-0.021183,0.070841,-0.062675
5.471,-0.021362,0.070293,-0.062176
5.491,-0.02173,0.06982,-0.061644
5.511,-0.022262,0.069558,-0.060789
5.531,-0.022945,0.069214,-0.060152
5.551,-0.023161,0.068676,-0.05967
5.571,-0.023086,0.068125,-0.059241
5.591,-0.023117,0.067643,-0.058822
5.611,-0.023376,0.067195,-0.058374
5.631,-0.023819,0.066755,-0.057887
5.651,-0.024245,0.066324,-0.057407
5.671,-0.024416,0.065795,-0.056955
5.691,-0.024495,0.06533,-0.056511
5.711,-0.024514,0.064847,-0.056098
5.731,-0.024684,0.064325,-0.055678
5.751,-0.025048,0.063883,-0.055272
5.771,-0.025511,0.063459,-0.054864
5.791,-0.025762,0.062951,-0.054469
5.811,-0.025831,0.062391,-0.054076
5.831,-0.026064,0.061988,-0.053639
5.851,-0.026469,0.061665,-0.053172
5.871,-0.026818,0.061338,-0.05275
5.891,-0.02694,0.060856,-0.052382
5.911,-0.02699,0.060422,-0.051996
5.931,-0.027205,0.060156,-0.051601
5.951,-0.02753,0.059916,-0.051179
5.971,-0.027929,0.059594,-0.050762
5.991,-0.028225,0.05919,-0.050377
6.011,-0.028352,0.058762,-0.049943
6.031,-0.02858,0.058469,-0.049555
6.051,-0.02879,0.058229,-0.049212
6.071,-0.029007,0.057913,-0.04887
6.091,-0.029256,0.057561,-0.048521
6.111,-0.029385,0.057163,-0.048136
6.131,-0.029505,0.056857,-0.047789
6.151,-0.029659,0.056566,-0.047472
6.171,-0.029626,0.056161,-0.047182
6.191,-0.029513,0.055749,-0.046878
6.211,-0.029665,0.055408,-0.046565
6.231,-0.02998,0.055162,-0.046244
6.251,-0.030192,0.054842,-0.045919
6.271,-0.030282,0.054467,-0.045608
6.291,-0.030532,0.054114,-0.045292
6.311,-0.030791,0.05385,-0.044987
6.331,-0.030983,0.053583,-0.044686
6.351,-0.031186,0.053282,-0.044376
6.371,-0.031451,0.052997,-0.044074
6.391,-0.031606,0.05266,-0.043789
6.411,-0.031581,0.052218,-0.043502
6.431,-0.03168,0.051874,-0.043225
6.451,-0.031952,0.051678,-0.04293
6.471,-0.032272,0.051606,-0.042635
6.491,-0.032505,0.051376,-0.042341
6.511,-0.032585,0.051012,-0.042068
6.531,-0.032692,0.050695,-0.041807
6.551,-0.032921,0.05051,-0.041518
6.571,-0.0332,0.050368,-0.04123
6.591,-0.033373,0.050122,-0.040941
6.611,-0.033438,0.049764,-0.040681
6.631,-0.033571,0.049481,-0.04041
6.651,-0.033768,0.049234,-0.040122
6.671,-0.034,0.048969,-0.039849
6.691,-0.034263,0.048703,-0.039589
6.711,-0.034472,0.048459,-0.039333
6.731,-0.034514,0.048146,-0.039069
6.751,-0.034555,0.047826,-0.03881
6.771,-0.034762,0.047557,-0.038575
6.791,-0.034942,0.04733,-0.038349
6.811,-0.035009,0.047011,-0.038102
6.831,-0.035133,0.04676,-0.037879
6.851,-0.035284,0.046496,-0.037663
6.871,-0.035401,0.046312,-0.037479
6.891,-0.035509,0.0461,-0.037283
