accel_time_list,accel_x_list,accel_y_list,accel_z_list
0.006000,0.085000,-1.887500,9.800000
0.026000,-0.115000,-1.762500,9.782500
0.046000,-0.022500,-1.802500,9.630000
0.066000,0.037500,-1.732500,9.402500
0.086000,0.117500,-1.685000,9.142500
0.106000,-0.007500,-1.642500,8.905000
0.126000,0.145000,-1.590000,8.697500
0.146000,0.262500,-1.402500,8.547500
0.166000,0.175000,-1.137500,8.422500
0.186000,0.032500,-0.887500,8.320000
0.206000,-0.115000,-0.645000,8.277500
0.226000,-0.310000,-0.455000,8.235000
0.246000,-0.555000,-0.352500,8.167500
0.266000,-0.845000,-0.342500,8.085000
0.286000,-1.190000,-0.400000,8.015000
0.306000,-1.565000,-0.485000,7.972500
0.326000,-1.950000,-0.542500,7.957500
0.346000,-2.322500,-0.570000,7.932500
0.366000,-2.680000,-0.605000,7.890000
0.386000,-3.057500,-0.677500,7.860000
0.406000,-3.472500,-0.807500,7.832500
0.426000,-3.892500,-0.975000,7.815000
0.446000,-4.302500,-1.120000,7.822500
0.466000,-4.712500,-1.260000,7.827500
0.486000,-5.132500,-1.425000,7.817500
0.506000,-5.542500,-1.607500,7.790000
0.526000,-5.902500,-1.797500,7.745000
0.546000,-6.200000,-1.987500,7.695000
0.566000,-6.445000,-2.185000,7.645000
0.586000,-6.652500,-2.382500,7.602500
0.606000,-6.815000,-2.562500,7.562500
0.626000,-6.940000,-2.715000,7.527500
0.646000,-7.032500,-2.837500,7.502500
0.666000,-7.105000,-2.920000,7.472500
0.686000,-7.165000,-2.970000,7.440000
0.706000,-7.212500,-2.997500,7.405000
0.726000,-7.245000,-3.017500,7.375000
0.746000,-7.257500,-3.030000,7.347500
0.766000,-7.255000,-3.037500,7.312500
0.786000,-7.242500,-3.050000,7.275000
0.806000,-7.217500,-3.067500,7.240000
0.826000,-7.190000,-3.080000,7.210000
0.846000,-7.162500,-3.087500,7.177500
0.866000,-7.125000,-3.085000,7.140000
0.886000,-7.080000,-3.080000,7.100000
0.906000,-7.032500,-3.075000,7.070000
0.926000,-6.975000,-3.062500,7.042500
0.946000,-6.905000,-3.040000,7.012500
0.966000,-6.832500,-3.012500,6.982500
0.986000,-6.757500,-2.985000,6.952500
1.006000,-6.662500,-2.950000,6.927500
1.026000,-6.550000,-2.912500,6.892500
1.046000,-6.442500,-2.877500,6.852500
1.066000,-6.347500,-2.845000,6.820000
1.086000,-6.245000,-2.807500,6.797500
1.106000,-6.120000,-2.765000,6.770000
1.126000,-5.977500,-2.727500,6.730000
1.146000,-5.835000,-2.692500,6.675000
1.166000,-5.715000,-2.662500,6.620000
1.186000,-5.607500,-2.632500,6.567500
1.206000,-5.505000,-2.600000,6.512500
1.226000,-5.405000,-2.567500,6.452500
1.246000,-5.307500,-2.535000,6.390000
1.266000,-5.217500,-2.505000,6.325000
1.286000,-5.137500,-2.475000,6.265000
1.306000,-5.075000,-2.450000,6.210000
1.326000,-5.055000,-2.432500,6.150000
1.346000,-5.110000,-2.447500,6.092500
1.366000,-5.267500,-2.485000,6.025000
1.386000,-5.522500,-2.500000,5.927500
1.406000,-5.845000,-2.532500,5.817500
1.426000,-6.122500,-2.575000,5.712500
1.446000,-6.285000,-2.620000,5.587500
1.466000,-6.300000,-2.680000,5.450000
1.486000,-6.082500,-2.707500,5.355000
1.506000,-5.802500,-2.670000,5.450000
1.526000,-5.885000,-2.767500,6.077500
1.546000,-5.370000,-2.390000,8.962500
1.566000,-6.032500,-1.700000,19.217500
1.586000,-6.035000,-1.902500,12.390000
1.606000,-1.600000,-3.367500,9.805000
1.626000,7.940000,-4.207500,9.922500
1.646000,3.127500,-3.225000,8.692500
1.666000,-5.950000,-2.770000,7.647500
1.686000,-8.865000,-4.060000,5.792500
1.706000,-5.182500,-5.627500,4.165000
1.726000,-0.442500,-6.755000,3.895000
1.746000,2.382500,-7.282500,4.382500
1.766000,1.702500,-7.575000,5.090000
1.786000,0.727500,-7.585000,5.697500
1.806000,0.222500,-7.337500,5.907500
1.826000,-0.080000,-6.832500,5.730000
1.846000,-0.217500,-5.920000,5.555000
1.866000,-0.212500,-4.490000,5.587500
1.886000,-0.215000,-2.497500,5.780000
1.906000,-0.235000,-0.552500,6.042500
1.926000,-0.132500,0.242500,6.242500
1.946000,0.050000,-0.397500,6.477500
1.966000,0.262500,-1.507500,6.697500
1.986000,0.412500,-2.375000,6.897500
2.006000,0.442500,-2.757500,7.150000
2.026000,0.320000,-2.920000,7.530000
2.046000,0.010000,-2.795000,8.242500
2.066000,-0.380000,-2.465000,9.082500
2.086000,-0.502500,-2.095000,9.512500
2.106000,-0.417500,-1.805000,9.580000
2.126000,-0.370000,-1.595000,9.482500
2.146000,-0.405000,-1.392500,9.385000
2.166000,-0.460000,-1.207500,9.377500
2.186000,-0.507500,-1.125000,9.432500
2.206000,-0.597500,-1.122500,9.537500
2.226000,-0.680000,-1.147500,9.657500
2.246000,-0.710000,-1.190000,9.730000
2.266000,-0.712500,-1.225000,9.762500
2.286000,-0.710000,-1.240000,9.795000
2.306000,-0.710000,-1.242500,9.835000
2.326000,-0.712500,-1.260000,9.880000
2.346000,-0.720000,-1.280000,9.912500
2.366000,-0.727500,-1.292500,9.940000
2.386000,-0.740000,-1.287500,9.967500
2.406000,-0.755000,-1.272500,10.000000
2.426000,-0.767500,-1.250000,10.032500
2.446000,-0.780000,-1.235000,10.057500
2.466000,-0.790000,-1.230000,10.080000
2.486000,-0.795000,-1.235000,10.100000
2.506000,-0.800000,-1.242500,10.117500
2.526000,-0.802500,-1.252500,10.135000
2.546000,-0.805000,-1.257500,10.152500
2.566000,-0.807500,-1.260000,10.170000
2.586000,-0.815000,-1.262500,10.185000
2.606000,-0.820000,-1.260000,10.202500
2.626000,-0.827500,-1.257500,10.215000
2.646000,-0.835000,-1.257500,10.227500
2.666000,-0.840000,-1.255000,10.240000
2.686000,-0.847500,-1.252500,10.252500
2.706000,-0.852500,-1.250000,10.265000
2.726000,-0.850000,-1.245000,10.280000
2.746000,-0.852500,-1.245000,10.287500
2.766000,-0.860000,-1.245000,10.297500
2.786000,-0.865000,-1.242500,10.307500
2.806000,-0.872500,-1.242500,10.315000
2.826000,-0.877500,-1.237500,10.325000
2.846000,-0.882500,-1.237500,10.335000
2.866000,-0.887500,-1.235000,10.342500
2.886000,-0.892500,-1.235000,10.347500
2.906000,-0.897500,-1.232500,10.355000
2.926000,-0.902500,-1.235000,10.362500
2.946000,-0.905000,-1.232500,10.370000
2.966000,-0.907500,-1.230000,10.377500
2.986000,-0.910000,-1.227500,10.382500
3.006000,-0.915000,-1.225000,10.390000
3.026000,-0.917500,-1.225000,10.395000
3.046000,-0.922500,-1.227500,10.400000
3.066000,-0.927500,-1.230000,10.402500
3.086000,-0.932500,-1.230000,10.407500
3.106000,-0.935000,-1.232500,10.412500
3.126000,-0.937500,-1.232500,10.417500
3.146000,-0.940000,-1.230000,10.422500
3.166000,-0.942500,-1.225000,10.427500
3.186000,-0.947500,-1.222500,10.432500
3.206000,-0.950000,-1.220000,10.435000
3.226000,-0.952500,-1.220000,10.440000
3.246000,-0.955000,-1.222500,10.442500
3.266000,-0.957500,-1.222500,10.447500
3.286000,-0.957500,-1.222500,10.450000
3.306000,-0.962500,-1.220000,10.455000
3.326000,-0.965000,-1.220000,10.457500
3.346000,-0.967500,-1.222500,10.460000
3.366000,-0.967500,-1.222500,10.462500
3.386000,-0.970000,-1.222500,10.467500
3.406000,-0.972500,-1.220000,10.470000
3.426000,-0.975000,-1.217500,10.472500
3.446000,-0.975000,-1.220000,10.475000
3.466000,-0.977500,-1.220000,10.480000
3.486000,-0.980000,-1.220000,10.482500
3.506000,-0.980000,-1.220000,10.485000
3.526000,-0.982500,-1.220000,10.487500
3.546000,-0.982500,-1.220000,10.490000
3.566000,-0.985000,-1.220000,10.492500
3.586000,-0.987500,-1.222500,10.495000
3.606000,-0.987500,-1.222500,10.497500
3.626000,-0.990000,-1.220000,10.500000
3.646000,-0.990000,-1.220000,10.502500
3.666000,-0.992500,-1.220000,10.505000
3.686000,-0.992500,-1.222500,10.505000
3.706000,-0.995000,-1.222500,10.507500
3.726000,-0.995000,-1.220000,10.510000
3.746000,-0.997500,-1.220000,10.512500
3.766000,-0.997500,-1.220000,10.515000
3.786000,-0.997500,-1.220000,10.515000
3.806000,-1.000000,-1.222500,10.517500
3.826000,-1.000000,-1.222500,10.520000
3.846000,-1.002500,-1.222500,10.520000
3.866000,-1.002500,-1.220000,10.522500
3.886000,-1.005000,-1.220000,10.525000
3.906000,-1.005000,-1.220000,10.525000
3.926000,-1.005000,-1.222500,10.527500
3.946000,-1.007500,-1.220000,10.530000
3.966000,-1.007500,-1.220000,10.530000
3.986000,-1.007500,-1.220000,10.532500
4.006000,-1.010000,-1.222500,10.532500
4.026000,-1.010000,-1.222500,10.535000
4.046000,-1.010000,-1.222500,10.537500
4.066000,-1.012500,-1.222500,10.537500
4.086000,-1.012500,-1.220000,10.540000
4.106000,-1.015000,-1.220000,10.540000
4.126000,-1.015000,-1.220000,10.542500
4.146000,-1.015000,-1.222500,10.542500
4.166000,-1.015000,-1.222500,10.545000
4.186000,-1.017500,-1.220000,10.547500
4.206000,-1.017500,-1.220000,10.547500
4.226000,-1.020000,-1.220000,10.550000
4.246000,-1.020000,-1.220000,10.550000
4.266000,-1.020000,-1.222500,10.550000
4.286000,-1.022500,-1.222500,10.552500
4.306000,-1.022500,-1.220000,10.552500
4.326000,-1.025000,-1.220000,10.555000
4.346000,-1.025000,-1.220000,10.555000
4.366000,-1.025000,-1.220000,10.557500
4.386000,-1.027500,-1.220000,10.557500
4.406000,-1.027500,-1.220000,10.560000
4.426000,-1.027500,-1.220000,10.560000
4.446000,-1.030000,-1.220000,10.562500
4.466000,-1.030000,-1.220000,10.562500
4.486000,-1.030000,-1.220000,10.565000
4.506000,-1.032500,-1.220000,10.565000
4.526000,-1.032500,-1.217500,10.565000
4.546000,-1.035000,-1.217500,10.567500
4.566000,-1.035000,-1.217500,10.567500
4.586000,-1.035000,-1.220000,10.570000
4.606000,-1.035000,-1.220000,10.570000
4.626000,-1.037500,-1.217500,10.570000
4.646000,-1.037500,-1.217500,10.572500
4.666000,-1.040000,-1.217500,10.572500
4.686000,-1.040000,-1.217500,10.575000
4.706000,-1.040000,-1.217500,10.575000
4.726000,-1.042500,-1.220000,10.575000
4.746000,-1.042500,-1.220000,10.577500
4.766000,-1.042500,-1.217500,10.577500
4.786000,-1.045000,-1.215000,10.577500
4.806000,-1.045000,-1.217500,10.580000
4.826000,-1.045000,-1.217500,10.580000
4.846000,-1.047500,-1.217500,10.580000
4.866000,-1.047500,-1.217500,10.582500
4.886000,-1.047500,-1.217500,10.582500
4.906000,-1.047500,-1.217500,10.582500
4.926000,-1.050000,-1.217500,10.585000
4.946000,-1.050000,-1.217500,10.585000
4.966000,-1.050000,-1.217500,10.587500
4.986000,-1.050000,-1.217500,10.587500
5.006000,-1.050000,-1.217500,10.587500
5.026000,-1.050000,-1.217500,10.587500
5.046000,-1.052500,-1.217500,10.590000
5.066000,-1.052500,-1.220000,10.590000
5.086000,-1.052500,-1.217500,10.590000
5.106000,-1.052500,-1.217500,10.592500
5.126000,-1.052500,-1.217500,10.592500
5.146000,-1.052500,-1.217500,10.595000
5.166000,-1.055000,-1.220000,10.595000
5.186000,-1.055000,-1.222500,10.595000
5.206000,-1.055000,-1.222500,10.595000
5.226000,-1.055000,-1.220000,10.595000
5.246000,-1.057500,-1.220000,10.597500
5.266000,-1.057500,-1.220000,10.600000
5.286000,-1.060000,-1.217500,10.602500
5.306000,-1.062500,-1.212500,10.605000
5.326000,-1.065000,-1.212500,10.605000
5.346000,-1.065000,-1.207500,10.610000
5.366000,-1.067500,-1.200000,10.612500
5.386000,-1.070000,-1.192500,10.620000
5.406000,-1.070000,-1.190000,10.630000
5.426000,-1.070000,-1.192500,10.637500
5.446000,-1.067500,-1.195000,10.645000
5.466000,-1.062500,-1.195000,10.657500
5.486000,-1.052500,-1.195000,10.675000
5.506000,-1.040000,-1.202500,10.695000
5.526000,-1.022500,-1.212500,10.715000
5.546000,-1.002500,-1.220000,10.735000
5.566000,-0.977500,-1.235000,10.752500
5.586000,-0.945000,-1.262500,10.760000
5.606000,-0.915000,-1.305000,10.755000
5.626000,-0.887500,-1.345000,10.747500
5.646000,-0.862500,-1.375000,10.740000
5.666000,-0.842500,-1.397500,10.725000
5.686000,-0.830000,-1.415000,10.712500
5.706000,-0.827500,-1.430000,10.710000
5.726000,-0.845000,-1.440000,10.707500
5.746000,-0.870000,-1.440000,10.702500
5.766000,-0.887500,-1.430000,10.697500
5.786000,-0.900000,-1.415000,10.700000
5.806000,-0.920000,-1.407500,10.710000
5.826000,-0.942500,-1.407500,10.720000
5.846000,-0.962500,-1.405000,10.732500
5.866000,-0.975000,-1.407500,10.740000
5.886000,-0.982500,-1.435000,10.742500
5.906000,-0.985000,-1.492500,10.732500
5.926000,-0.980000,-1.565000,10.727500
5.946000,-0.977500,-1.627500,10.720000
5.966000,-0.980000,-1.665000,10.710000
5.986000,-0.977500,-1.692500,10.695000
6.006000,-0.972500,-1.730000,10.675000
6.026000,-0.970000,-1.775000,10.652500
6.046000,-0.960000,-1.802500,10.630000
6.066000,-0.952500,-1.805000,10.615000
6.086000,-0.950000,-1.812500,10.597500
6.106000,-0.947500,-1.822500,10.582500
6.126000,-0.930000,-1.820000,10.560000
6.146000,-0.905000,-1.802500,10.540000
6.166000,-0.885000,-1.770000,10.530000
6.186000,-0.867500,-1.737500,10.520000
6.206000,-0.852500,-1.680000,10.502500
6.226000,-0.830000,-1.605000,10.475000
6.246000,-0.802500,-1.552500,10.460000
6.266000,-0.782500,-1.525000,10.447500
6.286000,-0.780000,-1.492500,10.447500
6.306000,-0.777500,-1.452500,10.450000
6.326000,-0.772500,-1.432500,10.450000
6.346000,-0.767500,-1.425000,10.450000
6.366000,-0.760000,-1.422500,10.450000
6.386000,-0.755000,-1.432500,10.450000
6.406000,-0.752500,-1.447500,10.452500
6.426000,-0.755000,-1.460000,10.455000
6.446000,-0.750000,-1.467500,10.455000
6.466000,-0.747500,-1.482500,10.457500
6.486000,-0.750000,-1.467500,10.465000
6.506000,-0.760000,-1.460000,10.475000
6.526000,-0.760000,-1.477500,10.485000
6.546000,-0.760000,-1.492500,10.497500
6.566000,-0.762500,-1.502500,10.505000
6.586000,-0.767500,-1.512500,10.510000
6.606000,-0.767500,-1.517500,10.507500
6.626000,-0.770000,-1.522500,10.507500
6.646000,-0.775000,-1.530000,10.507500
6.666000,-0.780000,-1.537500,10.510000
6.686000,-0.782500,-1.545000,10.515000
6.706000,-0.790000,-1.550000,10.522500
6.726000,-0.792500,-1.547500,10.527500
6.746000,-0.792500,-1.545000,10.530000
6.766000,-0.797500,-1.547500,10.530000
6.786000,-0.797500,-1.542500,10.530000
6.806000,-0.795000,-1.535000,10.525000
6.826000,-0.795000,-1.530000,10.525000
6.846000,-0.795000,-1.532500,10.525000
6.866000,-0.797500,-1.532500,10.525000
6.886000,-0.795000,-1.527500,10.525000
6.906000,-0.792500,-1.522500,10.527500
6.926000,-0.795000,-1.515000,10.532500
6.946000,-0.797500,-1.512500,10.535000
6.966000,-0.800000,-1.510000,10.540000
6.986000,-0.805000,-1.505000,10.545000
7.006000,-0.810000,-1.502500,10.547500
7.026000,-0.815000,-1.505000,10.547500
7.046000,-0.817500,-1.505000,10.550000
7.066000,-0.822500,-1.500000,10.552500
7.086000,-0.825000,-1.497500,10.550000
7.106000,-0.830000,-1.497500,10.547500
7.126000,-0.832500,-1.492500,10.545000
7.146000,-0.835000,-1.487500,10.545000
7.166000,-0.837500,-1.487500,10.545000
7.186000,-0.845000,-1.485000,10.547500
7.206000,-0.847500,-1.482500,10.550000
7.226000,-0.850000,-1.475000,10.552500
7.246000,-0.852500,-1.470000,10.550000
7.266000,-0.857500,-1.465000,10.552500
7.286000,-0.860000,-1.462500,10.555000
7.306000,-0.862500,-1.457500,10.555000
7.326000,-0.867500,-1.450000,10.557500
7.346000,-0.870000,-1.445000,10.560000
7.366000,-0.875000,-1.440000,10.562500
7.386000,-0.880000,-1.435000,10.562500
7.406000,-0.882500,-1.427500,10.562500
7.426000,-0.887500,-1.422500,10.562500
7.446000,-0.892500,-1.417500,10.565000
7.466000,-0.897500,-1.410000,10.565000
7.486000,-0.902500,-1.402500,10.565000
7.506000,-0.910000,-1.397500,10.565000
7.526000,-0.915000,-1.395000,10.567500
7.546000,-0.922500,-1.387500,10.570000
7.566000,-0.927500,-1.380000,10.572500
7.586000,-0.932500,-1.375000,10.572500
7.606000,-0.940000,-1.370000,10.572500
7.626000,-0.945000,-1.362500,10.572500
7.646000,-0.950000,-1.357500,10.575000
7.666000,-0.955000,-1.350000,10.577500
7.686000,-0.962500,-1.347500,10.577500
7.706000,-0.967500,-1.340000,10.575000
7.726000,-0.972500,-1.335000,10.575000
7.746000,-0.977500,-1.330000,10.575000
7.766000,-0.982500,-1.325000,10.577500
7.786000,-0.987500,-1.320000,10.580000
7.806000,-0.992500,-1.315000,10.580000
7.826000,-1.000000,-1.310000,10.580000
7.846000,-1.005000,-1.305000,10.582500
7.866000,-1.010000,-1.302500,10.582500
7.886000,-1.017500,-1.297500,10.582500
7.906000,-1.020000,-1.290000,10.582500
7.926000,-1.025000,-1.285000,10.582500
7.946000,-1.030000,-1.280000,10.582500
7.966000,-1.037500,-1.275000,10.582500
7.986000,-1.042500,-1.270000,10.582500
