gyro_time_list,gyro_x_list,gyro_y_list,gyro_z_list
0.006000,-0.163000,0.109000,0.138000
0.026000,-0.185000,0.123000,0.182000
0.046000,-0.200000,0.134000,0.193000
0.066000,-0.214000,0.159000,0.195000
0.086000,-0.250000,0.183000,0.195000
0.106000,-0.285000,0.204000,0.172000
0.126000,-0.287000,0.235000,0.225000
0.146000,-0.246000,0.308000,0.304000
0.166000,-0.215000,0.391000,0.405000
0.186000,-0.216000,0.465000,0.526000
0.206000,-0.271000,0.534000,0.654000
0.226000,-0.384000,0.604000,0.786000
0.246000,-0.522000,0.673000,0.931000
0.266000,-0.653000,0.740000,1.086000
0.286000,-0.765000,0.802000,1.242000
0.306000,-0.859000,0.857000,1.391000
0.326000,-0.943000,0.903000,1.533000
0.346000,-1.030000,0.941000,1.667000
0.366000,-1.131000,0.975000,1.789000
0.386000,-1.252000,1.006000,1.895000
0.406000,-1.383000,1.032000,1.985000
0.426000,-1.494000,1.051000,2.068000
0.446000,-1.593000,1.063000,2.142000
0.466000,-1.703000,1.068000,2.200000
0.486000,-1.813000,1.064000,2.246000
0.506000,-1.903000,1.048000,2.284000
0.526000,-1.968000,1.021000,2.311000
0.546000,-2.010000,0.987000,2.327000
0.566000,-2.027000,0.948000,2.332000
0.586000,-2.018000,0.905000,2.328000
0.606000,-1.985000,0.859000,2.313000
0.626000,-1.935000,0.811000,2.290000
0.646000,-1.873000,0.761000,2.257000
0.666000,-1.805000,0.710000,2.215000
0.686000,-1.743000,0.658000,2.164000
0.706000,-1.692000,0.604000,2.104000
0.726000,-1.652000,0.548000,2.036000
0.746000,-1.620000,0.491000,1.962000
0.766000,-1.594000,0.434000,1.884000
0.786000,-1.571000,0.376000,1.801000
0.806000,-1.545000,0.320000,1.717000
0.826000,-1.512000,0.267000,1.633000
0.846000,-1.472000,0.214000,1.550000
0.866000,-1.428000,0.163000,1.468000
0.886000,-1.382000,0.116000,1.388000
0.906000,-1.333000,0.071000,1.309000
0.926000,-1.278000,0.027000,1.232000
0.946000,-1.220000,-0.015000,1.157000
0.966000,-1.162000,-0.055000,1.084000
0.986000,-1.105000,-0.095000,1.012000
1.006000,-1.048000,-0.135000,0.942000
1.026000,-0.993000,-0.174000,0.873000
1.046000,-0.942000,-0.209000,0.804000
1.066000,-0.892000,-0.243000,0.738000
1.086000,-0.839000,-0.281000,0.673000
1.106000,-0.787000,-0.321000,0.608000
1.126000,-0.737000,-0.361000,0.543000
1.146000,-0.690000,-0.397000,0.476000
1.166000,-0.641000,-0.429000,0.410000
1.186000,-0.589000,-0.458000,0.345000
1.206000,-0.536000,-0.486000,0.282000
1.226000,-0.485000,-0.512000,0.221000
1.246000,-0.439000,-0.535000,0.162000
1.266000,-0.397000,-0.553000,0.104000
1.286000,-0.357000,-0.568000,0.046000
1.306000,-0.319000,-0.579000,-0.013000
1.326000,-0.285000,-0.586000,-0.072000
1.346000,-0.258000,-0.587000,-0.134000
1.366000,-0.229000,-0.582000,-0.196000
1.386000,-0.202000,-0.581000,-0.251000
1.406000,-0.191000,-0.585000,-0.307000
1.426000,-0.204000,-0.596000,-0.376000
1.446000,-0.229000,-0.607000,-0.462000
1.466000,-0.243000,-0.602000,-0.562000
1.486000,-0.246000,-0.562000,-0.650000
1.506000,-0.265000,-0.474000,-0.671000
1.526000,-0.309000,-0.364000,-0.599000
1.546000,-0.378000,-0.384000,-0.394000
1.566000,-0.512000,-0.513000,-0.212000
1.586000,-0.657000,-0.651000,-0.346000
1.606000,-0.668000,-0.783000,-0.384000
1.626000,-0.467000,-0.725000,-0.382000
1.646000,-0.247000,-0.594000,-0.361000
1.666000,-0.323000,-0.498000,-0.233000
1.686000,-0.439000,-0.523000,-0.174000
1.706000,-0.471000,-0.521000,-0.023000
1.726000,-0.417000,-0.443000,0.088000
1.746000,-0.317000,-0.321000,0.059000
1.766000,-0.139000,-0.196000,0.025000
1.786000,0.104000,-0.107000,-0.015000
1.806000,0.359000,-0.066000,-0.082000
1.826000,0.604000,-0.055000,-0.160000
1.846000,0.812000,-0.063000,-0.198000
1.866000,0.946000,-0.077000,-0.204000
1.886000,0.938000,-0.083000,-0.180000
1.906000,0.722000,-0.084000,-0.169000
1.926000,0.373000,-0.081000,-0.172000
1.946000,0.054000,-0.074000,-0.173000
1.966000,-0.048000,-0.047000,-0.174000
1.986000,0.098000,0.000000,-0.164000
2.006000,0.327000,0.056000,-0.163000
2.026000,0.551000,0.108000,-0.170000
2.046000,0.698000,0.141000,-0.183000
2.066000,0.685000,0.137000,-0.206000
2.086000,0.610000,0.108000,-0.221000
2.106000,0.528000,0.079000,-0.233000
2.126000,0.468000,0.061000,-0.233000
2.146000,0.425000,0.053000,-0.229000
2.166000,0.374000,0.048000,-0.225000
2.186000,0.317000,0.049000,-0.221000
2.206000,0.262000,0.051000,-0.220000
2.226000,0.213000,0.050000,-0.220000
2.246000,0.174000,0.047000,-0.220000
2.266000,0.152000,0.046000,-0.220000
2.286000,0.140000,0.046000,-0.218000
2.306000,0.128000,0.046000,-0.215000
2.326000,0.115000,0.045000,-0.211000
2.346000,0.108000,0.044000,-0.206000
2.366000,0.105000,0.043000,-0.201000
2.386000,0.104000,0.043000,-0.197000
2.406000,0.103000,0.043000,-0.192000
2.426000,0.098000,0.043000,-0.189000
2.446000,0.091000,0.043000,-0.186000
2.466000,0.082000,0.042000,-0.183000
2.486000,0.074000,0.042000,-0.180000
2.506000,0.068000,0.042000,-0.177000
2.526000,0.063000,0.042000,-0.173000
2.546000,0.060000,0.042000,-0.170000
2.566000,0.058000,0.042000,-0.166000
2.586000,0.056000,0.043000,-0.162000
2.606000,0.054000,0.043000,-0.159000
2.626000,0.051000,0.044000,-0.155000
2.646000,0.049000,0.044000,-0.152000
2.666000,0.047000,0.045000,-0.148000
2.686000,0.045000,0.045000,-0.145000
2.706000,0.044000,0.046000,-0.142000
2.726000,0.042000,0.046000,-0.139000
2.746000,0.040000,0.046000,-0.136000
2.766000,0.038000,0.046000,-0.133000
2.786000,0.036000,0.046000,-0.130000
2.806000,0.035000,0.046000,-0.128000
2.826000,0.032000,0.045000,-0.125000
2.846000,0.030000,0.045000,-0.123000
2.866000,0.028000,0.045000,-0.121000
2.886000,0.026000,0.045000,-0.118000
2.906000,0.024000,0.046000,-0.116000
2.926000,0.023000,0.045000,-0.115000
2.946000,0.022000,0.045000,-0.114000
2.966000,0.020000,0.045000,-0.113000
2.986000,0.019000,0.044000,-0.112000
3.006000,0.017000,0.043000,-0.111000
3.026000,0.014000,0.043000,-0.110000
3.046000,0.013000,0.043000,-0.108000
3.066000,0.011000,0.043000,-0.107000
3.086000,0.011000,0.043000,-0.105000
3.106000,0.010000,0.042000,-0.104000
3.126000,0.010000,0.042000,-0.102000
3.146000,0.010000,0.042000,-0.101000
3.166000,0.009000,0.042000,-0.099000
3.186000,0.008000,0.042000,-0.098000
3.206000,0.006000,0.041000,-0.097000
3.226000,0.005000,0.041000,-0.097000
3.246000,0.003000,0.041000,-0.096000
3.266000,0.002000,0.040000,-0.095000
3.286000,0.002000,0.040000,-0.094000
3.306000,0.001000,0.040000,-0.093000
3.326000,0.000000,0.039000,-0.092000
3.346000,-0.001000,0.039000,-0.091000
3.366000,-0.002000,0.039000,-0.090000
3.386000,-0.002000,0.039000,-0.089000
3.406000,-0.003000,0.039000,-0.088000
3.426000,-0.004000,0.038000,-0.088000
3.446000,-0.005000,0.038000,-0.087000
3.466000,-0.005000,0.037000,-0.086000
3.486000,-0.006000,0.037000,-0.086000
3.506000,-0.007000,0.037000,-0.085000
3.526000,-0.008000,0.037000,-0.085000
3.546000,-0.008000,0.036000,-0.084000
3.566000,-0.009000,0.036000,-0.083000
3.586000,-0.009000,0.036000,-0.082000
3.606000,-0.009000,0.036000,-0.082000
3.626000,-0.010000,0.036000,-0.081000
3.646000,-0.010000,0.036000,-0.080000
3.666000,-0.011000,0.035000,-0.079000
3.686000,-0.011000,0.035000,-0.079000
3.706000,-0.012000,0.035000,-0.078000
3.726000,-0.012000,0.035000,-0.077000
3.746000,-0.012000,0.035000,-0.077000
3.766000,-0.013000,0.035000,-0.076000
3.786000,-0.014000,0.035000,-0.076000
3.806000,-0.014000,0.034000,-0.075000
3.826000,-0.015000,0.034000,-0.074000
3.846000,-0.015000,0.034000,-0.074000
3.866000,-0.015000,0.034000,-0.073000
3.886000,-0.015000,0.034000,-0.072000
3.906000,-0.016000,0.034000,-0.072000
3.926000,-0.016000,0.034000,-0.071000
3.946000,-0.017000,0.034000,-0.071000
3.966000,-0.017000,0.034000,-0.070000
3.986000,-0.018000,0.033000,-0.070000
4.006000,-0.018000,0.033000,-0.069000
4.026000,-0.018000,0.033000,-0.068000
4.046000,-0.018000,0.033000,-0.068000
4.066000,-0.018000,0.033000,-0.067000
4.086000,-0.019000,0.033000,-0.067000
4.106000,-0.019000,0.033000,-0.066000
4.126000,-0.020000,0.033000,-0.066000
4.146000,-0.020000,0.033000,-0.065000
4.166000,-0.020000,0.033000,-0.064000
4.186000,-0.020000,0.033000,-0.064000
4.206000,-0.020000,0.033000,-0.063000
4.226000,-0.021000,0.033000,-0.063000
4.246000,-0.021000,0.033000,-0.062000
4.266000,-0.022000,0.033000,-0.062000
4.286000,-0.022000,0.033000,-0.061000
4.306000,-0.022000,0.033000,-0.060000
4.326000,-0.022000,0.033000,-0.060000
4.346000,-0.022000,0.032000,-0.059000
4.366000,-0.023000,0.032000,-0.059000
4.386000,-0.023000,0.032000,-0.059000
4.406000,-0.023000,0.032000,-0.058000
4.426000,-0.023000,0.032000,-0.058000
4.446000,-0.024000,0.032000,-0.057000
4.466000,-0.024000,0.032000,-0.057000
4.486000,-0.024000,0.032000,-0.056000
4.506000,-0.024000,0.032000,-0.056000
4.526000,-0.025000,0.032000,-0.055000
4.546000,-0.025000,0.032000,-0.055000
4.566000,-0.025000,0.032000,-0.055000
4.586000,-0.026000,0.031000,-0.054000
4.606000,-0.026000,0.031000,-0.054000
4.626000,-0.026000,0.031000,-0.053000
4.646000,-0.026000,0.031000,-0.053000
4.666000,-0.027000,0.031000,-0.053000
4.686000,-0.027000,0.031000,-0.052000
4.706000,-0.027000,0.031000,-0.052000
4.726000,-0.027000,0.031000,-0.052000
4.746000,-0.027000,0.031000,-0.051000
4.766000,-0.027000,0.031000,-0.051000
4.786000,-0.028000,0.030000,-0.050000
4.806000,-0.028000,0.030000,-0.050000
4.826000,-0.029000,0.030000,-0.050000
4.846000,-0.029000,0.030000,-0.050000
4.866000,-0.029000,0.030000,-0.049000
4.886000,-0.029000,0.030000,-0.049000
4.906000,-0.030000,0.030000,-0.049000
4.926000,-0.030000,0.030000,-0.048000
4.946000,-0.030000,0.029000,-0.048000
4.966000,-0.030000,0.029000,-0.048000
4.986000,-0.031000,0.029000,-0.048000
5.006000,-0.031000,0.029000,-0.047000
5.026000,-0.031000,0.029000,-0.047000
5.046000,-0.032000,0.029000,-0.047000
5.066000,-0.032000,0.029000,-0.047000
5.086000,-0.032000,0.029000,-0.046000
5.106000,-0.032000,0.029000,-0.046000
5.126000,-0.032000,0.028000,-0.046000
5.146000,-0.033000,0.028000,-0.045000
5.166000,-0.033000,0.028000,-0.045000
5.186000,-0.033000,0.028000,-0.045000
5.206000,-0.032000,0.028000,-0.044000
5.226000,-0.032000,0.029000,-0.044000
5.246000,-0.032000,0.029000,-0.044000
5.266000,-0.031000,0.029000,-0.043000
5.286000,-0.031000,0.030000,-0.043000
5.306000,-0.032000,0.030000,-0.042000
5.326000,-0.034000,0.030000,-0.042000
5.346000,-0.035000,0.029000,-0.042000
5.366000,-0.037000,0.028000,-0.041000
5.386000,-0.042000,0.027000,-0.041000
5.406000,-0.049000,0.025000,-0.041000
5.426000,-0.056000,0.023000,-0.041000
5.446000,-0.064000,0.021000,-0.042000
5.466000,-0.072000,0.020000,-0.042000
5.486000,-0.081000,0.019000,-0.042000
5.506000,-0.091000,0.019000,-0.042000
5.526000,-0.100000,0.019000,-0.041000
5.546000,-0.108000,0.018000,-0.040000
5.566000,-0.118000,0.018000,-0.038000
5.586000,-0.129000,0.017000,-0.037000
5.606000,-0.134000,0.016000,-0.034000
5.626000,-0.132000,0.017000,-0.031000
5.646000,-0.126000,0.019000,-0.027000
5.666000,-0.117000,0.021000,-0.023000
5.686000,-0.109000,0.025000,-0.019000
5.706000,-0.099000,0.028000,-0.015000
5.726000,-0.083000,0.031000,-0.010000
5.746000,-0.065000,0.032000,-0.004000
5.766000,-0.051000,0.032000,0.002000
5.786000,-0.045000,0.032000,0.006000
5.806000,-0.046000,0.030000,0.009000
5.826000,-0.052000,0.027000,0.012000
5.846000,-0.063000,0.022000,0.014000
5.866000,-0.083000,0.015000,0.013000
5.886000,-0.115000,0.006000,0.008000
5.906000,-0.145000,-0.002000,0.001000
5.926000,-0.160000,-0.010000,-0.006000
5.946000,-0.160000,-0.016000,-0.016000
5.966000,-0.153000,-0.021000,-0.027000
5.986000,-0.146000,-0.026000,-0.039000
6.006000,-0.135000,-0.031000,-0.053000
6.026000,-0.117000,-0.035000,-0.067000
6.046000,-0.093000,-0.037000,-0.083000
6.066000,-0.067000,-0.039000,-0.097000
6.086000,-0.040000,-0.042000,-0.112000
6.106000,-0.012000,-0.046000,-0.126000
6.126000,0.016000,-0.049000,-0.141000
6.146000,0.042000,-0.051000,-0.155000
6.166000,0.058000,-0.051000,-0.169000
6.186000,0.072000,-0.049000,-0.182000
6.206000,0.080000,-0.046000,-0.193000
6.226000,0.076000,-0.042000,-0.202000
6.246000,0.060000,-0.036000,-0.212000
6.266000,0.044000,-0.029000,-0.219000
6.286000,0.038000,-0.021000,-0.221000
6.306000,0.032000,-0.015000,-0.221000
6.326000,0.026000,-0.009000,-0.220000
6.346000,0.018000,-0.003000,-0.218000
6.366000,0.009000,0.003000,-0.216000
6.386000,0.001000,0.008000,-0.215000
6.406000,-0.006000,0.014000,-0.214000
6.426000,-0.010000,0.019000,-0.213000
6.446000,-0.013000,0.024000,-0.213000
6.466000,-0.021000,0.029000,-0.213000
6.486000,-0.030000,0.035000,-0.213000
6.506000,-0.048000,0.037000,-0.215000
6.526000,-0.067000,0.039000,-0.216000
6.546000,-0.079000,0.041000,-0.217000
6.566000,-0.082000,0.044000,-0.216000
6.586000,-0.079000,0.046000,-0.214000
6.606000,-0.073000,0.048000,-0.212000
6.626000,-0.065000,0.051000,-0.209000
6.646000,-0.056000,0.054000,-0.207000
6.666000,-0.048000,0.057000,-0.206000
6.686000,-0.041000,0.059000,-0.205000
6.706000,-0.035000,0.060000,-0.204000
6.726000,-0.032000,0.061000,-0.203000
6.746000,-0.032000,0.061000,-0.202000
6.766000,-0.029000,0.061000,-0.200000
6.786000,-0.025000,0.062000,-0.198000
6.806000,-0.023000,0.062000,-0.195000
6.826000,-0.021000,0.063000,-0.194000
6.846000,-0.017000,0.064000,-0.191000
6.866000,-0.014000,0.065000,-0.189000
6.886000,-0.012000,0.066000,-0.188000
6.906000,-0.011000,0.067000,-0.186000
6.926000,-0.010000,0.068000,-0.185000
6.946000,-0.010000,0.068000,-0.183000
6.966000,-0.009000,0.069000,-0.181000
6.986000,-0.009000,0.069000,-0.180000
7.006000,-0.012000,0.069000,-0.178000
7.026000,-0.014000,0.068000,-0.177000
7.046000,-0.014000,0.068000,-0.176000
7.066000,-0.013000,0.068000,-0.174000
7.086000,-0.013000,0.068000,-0.173000
7.106000,-0.012000,0.069000,-0.171000
7.126000,-0.010000,0.069000,-0.169000
7.146000,-0.010000,0.070000,-0.168000
7.166000,-0.009000,0.071000,-0.167000
7.186000,-0.007000,0.072000,-0.165000
7.206000,-0.005000,0.072000,-0.163000
7.226000,-0.003000,0.072000,-0.162000
7.246000,-0.003000,0.072000,-0.161000
7.266000,-0.002000,0.072000,-0.160000
7.286000,-0.001000,0.072000,-0.159000
7.306000,-0.001000,0.072000,-0.157000
7.326000,-0.001000,0.072000,-0.156000
7.346000,-0.001000,0.072000,-0.155000
7.366000,-0.002000,0.073000,-0.153000
7.386000,-0.002000,0.073000,-0.152000
7.406000,-0.002000,0.073000,-0.151000
7.426000,-0.002000,0.074000,-0.149000
7.446000,-0.001000,0.074000,-0.148000
7.466000,-0.001000,0.075000,-0.147000
7.486000,-0.001000,0.075000,-0.145000
7.506000,-0.002000,0.075000,-0.144000
7.526000,-0.001000,0.076000,-0.143000
7.546000,0.000000,0.076000,-0.141000
7.566000,-0.001000,0.076000,-0.140000
7.586000,-0.001000,0.076000,-0.139000
7.606000,-0.001000,0.075000,-0.138000
7.626000,-0.001000,0.075000,-0.137000
7.646000,-0.001000,0.075000,-0.136000
7.666000,-0.002000,0.075000,-0.134000
7.686000,-0.002000,0.075000,-0.133000
7.706000,-0.003000,0.075000,-0.132000
7.726000,-0.002000,0.075000,-0.131000
7.746000,-0.003000,0.075000,-0.130000
7.766000,-0.003000,0.075000,-0.129000
7.786000,-0.003000,0.074000,-0.128000
7.806000,-0.004000,0.074000,-0.127000
7.826000,-0.004000,0.074000,-0.126000
7.846000,-0.005000,0.073000,-0.126000
7.866000,-0.005000,0.072000,-0.125000
7.886000,-0.005000,0.072000,-0.123000
7.906000,-0.005000,0.071000,-0.122000
7.926000,-0.005000,0.070000,-0.121000
7.946000,-0.005000,0.070000,-0.120000
7.966000,-0.005000,0.069000,-0.119000
7.986000,-0.005000,0.069000,-0.117000
