accel_time_list,accel_x_list,accel_y_list,accel_z_list
0.030000,-1.527501,-8.784326,6.157887
0.050000,-1.589750,-8.687361,6.186617
0.070000,-1.635278,-8.526340,6.318349
0.090000,-1.637666,-8.390287,6.374186
0.110000,-1.563336,-8.323463,6.359111
0.130000,-1.326101,-8.309561,6.294569
0.150000,-1.223209,-8.270668,6.246660
0.170000,-1.277633,-8.172873,6.272912
0.190000,-1.276916,-8.091599,6.302187
0.210000,-1.264374,-7.999974,6.345709
0.230000,-1.248817,-7.922460,6.382924
0.250000,-1.251746,-7.862227,6.416608
0.270000,-1.267721,-7.825167,6.445698
0.290000,-1.278787,-7.802162,6.469247
0.310000,-1.278279,-7.806515,6.481816
0.330000,-1.275552,-7.818073,6.498158
0.350000,-1.283035,-7.827947,6.521229
0.370000,-1.286027,-7.833803,6.546670
0.390000,-1.280113,-7.829105,6.570111
0.410000,-1.274917,-7.814111,6.593331
0.430000,-1.273930,-7.795712,6.614008
0.450000,-1.275470,-7.783163,6.643438
0.470000,-1.268621,-7.778746,6.681995
0.490000,-1.251483,-7.789312,6.715936
0.510000,-1.226197,-7.809674,6.741306
0.530000,-1.194909,-7.828404,6.755585
0.550000,-1.162653,-7.844843,6.760229
0.570000,-1.127716,-7.853485,6.757367
0.590000,-1.090125,-7.854506,6.752876
0.610000,-1.048371,-7.854787,6.745489
0.630000,-1.005606,-7.855130,6.739653
0.650000,-0.962194,-7.856311,6.733322
0.670000,-0.917357,-7.860067,6.724392
0.690000,-0.869750,-7.863304,6.712117
0.710000,-0.819948,-7.866636,6.697851
0.730000,-0.770736,-7.870125,6.685000
0.750000,-0.723621,-7.872139,6.672904
0.770000,-0.678564,-7.871417,6.663190
0.790000,-0.635094,-7.869453,6.653780
0.810000,-0.592483,-7.867341,6.643880
0.830000,-0.550116,-7.865821,6.635718
0.850000,-0.509414,-7.865503,6.628195
0.870000,-0.470293,-7.866532,6.620728
0.890000,-0.433141,-7.867117,6.614837
0.910000,-0.398461,-7.869665,6.608239
0.930000,-0.364764,-7.871830,6.602946
0.950000,-0.331161,-7.871095,6.598380
0.970000,-0.299349,-7.871584,6.594766
0.990000,-0.267616,-7.873624,6.590936
1.010000,-0.236382,-7.875284,6.588508
1.030000,-0.207444,-7.876682,6.587500
1.050000,-0.180222,-7.877499,6.585738
1.070000,-0.153097,-7.877347,6.585070
1.090000,-0.125705,-7.875591,6.585050
1.110000,-0.098221,-7.873991,6.586061
1.130000,-0.070869,-7.873024,6.587586
1.150000,-0.044652,-7.871527,6.590319
1.170000,-0.020414,-7.870338,6.594774
1.190000,0.001535,-7.869317,6.601872
1.210000,0.024225,-7.865639,6.610723
1.230000,0.048492,-7.857062,6.620282
1.250000,0.073440,-7.846956,6.631279
1.270000,0.098581,-7.838243,6.642878
1.290000,0.123136,-7.832728,6.654240
1.310000,0.146662,-7.827841,6.665699
1.330000,0.169605,-7.821752,6.677495
1.350000,0.191632,-7.815528,6.689301
1.370000,0.211677,-7.809738,6.701357
1.390000,0.232525,-7.802141,6.712912
1.410000,0.253667,-7.791878,6.723593
1.430000,0.273985,-7.780002,6.734656
1.450000,0.294129,-7.767052,6.746054
1.470000,0.315108,-7.751756,6.757402
1.490000,0.337658,-7.734039,6.767954
1.510000,0.360296,-7.715525,6.778920
1.530000,0.382561,-7.697605,6.788705
1.550000,0.406446,-7.679281,6.797051
1.570000,0.432611,-7.658888,6.804142
1.590000,0.460069,-7.636075,6.810552
1.610000,0.488447,-7.612571,6.816163
1.630000,0.516470,-7.590649,6.820335
1.650000,0.545184,-7.567613,6.823740
1.670000,0.574539,-7.540180,6.827261
1.690000,0.604492,-7.506327,6.828730
1.710000,0.634546,-7.462423,6.827888
1.730000,0.665869,-7.405186,6.824006
1.750000,0.699351,-7.335472,6.818165
1.770000,0.734774,-7.251802,6.806063
1.790000,0.773491,-7.153792,6.784335
1.810000,0.814679,-7.050462,6.754038
1.830000,0.857193,-6.936997,6.721210
1.850000,0.899366,-6.801737,6.686993
1.870000,0.937981,-6.636610,6.653396
1.890000,0.974910,-6.450363,6.614740
1.910000,1.010822,-6.285404,6.571397
1.930000,1.045207,-6.142764,6.535470
1.950000,1.081917,-5.969410,6.517488
1.970000,1.121190,-5.764925,6.510313
1.990000,1.179462,-5.580851,6.505984
2.010000,1.225938,-5.438546,6.501873
2.077000,1.240862,-5.282745,6.464671
2.097000,1.257742,-5.101718,6.330849
2.117000,0.974728,-4.942506,6.193515
2.137000,0.185707,-4.744885,6.125831
2.157000,-3.176908,-5.869635,7.451026
2.177000,0.053314,-7.550395,6.391703
2.197000,10.131334,0.338851,5.696476
2.217000,5.996425,13.218637,4.679823
2.237000,-6.590268,-24.910044,1.134539
2.257000,-3.816407,-25.139811,1.412292
2.277000,0.021736,-9.573005,1.980605
2.297000,2.465193,-6.573351,1.684204
2.317000,0.275538,-11.516031,2.898101
2.337000,-0.214404,-8.783897,3.861629
2.357000,0.097289,-7.337003,4.119223
2.377000,0.477693,-7.904016,4.277255
2.397000,0.491202,-8.547195,4.266285
2.417000,0.509805,-8.773841,4.373986
2.437000,0.573710,-8.788181,4.488935
2.457000,0.394367,-8.043139,4.945211
2.477000,0.195265,-7.614362,5.313802
2.497000,0.263082,-8.000222,5.226499
2.517000,0.415124,-8.500134,5.017839
2.537000,0.395112,-8.626121,4.990787
2.557000,0.287438,-8.392557,5.099398
2.577000,0.166870,-8.121397,5.324980
2.597000,0.082008,-8.045654,5.392710
2.617000,-0.032343,-8.176032,5.334247
2.637000,0.020977,-8.311433,5.309119
2.657000,0.188850,-8.363707,5.310310
2.677000,0.252049,-8.433248,5.336506
2.697000,0.285629,-8.438862,5.356238
2.717000,0.277049,-8.440959,5.376216
2.737000,0.246387,-8.440623,5.379415
2.757000,0.248574,-8.450415,5.382146
2.777000,0.270880,-8.486354,5.376157
2.797000,0.310289,-8.510164,5.364859
2.817000,0.360962,-8.536698,5.359582
2.837000,0.393427,-8.552032,5.351821
2.857000,0.401287,-8.568138,5.348275
2.877000,0.403447,-8.576262,5.349503
2.897000,0.401438,-8.585722,5.349161
2.917000,0.403859,-8.594944,5.346487
2.937000,0.402447,-8.607329,5.344933
2.957000,0.408623,-8.616123,5.341326
2.977000,0.422974,-8.628483,5.330626
2.997000,0.438633,-8.637867,5.324627
3.017000,0.456433,-8.638569,5.322317
3.037000,0.469684,-8.643379,5.322832
3.057000,0.474293,-8.643946,5.327832
3.077000,0.476735,-8.642101,5.332341
3.097000,0.476663,-8.643285,5.335198
3.117000,0.475088,-8.645990,5.339962
3.137000,0.473409,-8.642111,5.348220
3.157000,0.475038,-8.637738,5.356121
3.177000,0.475538,-8.636648,5.365496
3.197000,0.473340,-8.635612,5.374272
3.217000,0.471742,-8.633809,5.382060
3.237000,0.472448,-8.633174,5.387150
3.257000,0.476689,-8.639701,5.388317
3.277000,0.477675,-8.643272,5.390933
3.297000,0.476423,-8.637921,5.397703
3.317000,0.475873,-8.633578,5.404175
3.337000,0.476424,-8.633936,5.408661
3.357000,0.477914,-8.635034,5.411448
3.377000,0.481044,-8.637665,5.412671
3.397000,0.482669,-8.639999,5.414342
3.417000,0.482096,-8.639633,5.419083
3.437000,0.482035,-8.634997,5.425703
3.457000,0.485351,-8.636571,5.428218
3.477000,0.489803,-8.642942,5.426483
3.497000,0.493557,-8.646310,5.423068
3.517000,0.496059,-8.651042,5.423757
3.537000,0.496915,-8.652529,5.426670
3.557000,0.496043,-8.650211,5.431743
3.577000,0.494443,-8.648843,5.435614
3.597000,0.494971,-8.652663,5.437216
3.617000,0.496718,-8.657329,5.438088
3.637000,0.496548,-8.658203,5.442216
3.657000,0.494662,-8.656004,5.447444
3.677000,0.492131,-8.654411,5.453004
3.697000,0.488327,-8.650215,5.460504
3.717000,0.483370,-8.644904,5.469779
3.737000,0.477656,-8.638927,5.478343
3.757000,0.474581,-8.634715,5.485693
3.777000,0.471728,-8.633000,5.493248
3.797000,0.471316,-8.627811,5.499182
3.817000,0.471355,-8.624412,5.506333
3.837000,0.472459,-8.622493,5.512712
3.857000,0.473796,-8.621793,5.518107
3.877000,0.471104,-8.619658,5.523705
3.897000,0.467098,-8.612967,5.533562
3.917000,0.462011,-8.602654,5.544949
3.937000,0.457100,-8.593204,5.558135
3.957000,0.453048,-8.586365,5.567901
3.977000,0.448593,-8.583015,5.578409
3.997000,0.445155,-8.578593,5.584795
4.017000,0.445733,-8.575670,5.586579
4.037000,0.449080,-8.580008,5.590728
4.057000,0.450130,-8.586486,5.595991
4.119000,0.447610,-8.585178,5.605040
4.139000,0.446219,-8.581830,5.611542
4.159000,0.446151,-8.576021,5.618640
4.179000,0.444978,-8.574404,5.627135
4.199000,0.441897,-8.569893,5.636465
4.219000,0.439685,-8.561893,5.645156
4.239000,0.436722,-8.557364,5.653666
4.259000,0.437229,-8.556750,5.658252
4.279000,0.436862,-8.556809,5.662919
4.299000,0.434500,-8.554802,5.670534
4.319000,0.432185,-8.549870,5.677496
4.339000,0.431909,-8.545976,5.682786
4.359000,0.432210,-8.544585,5.686807
4.379000,0.431914,-8.547454,5.690043
4.399000,0.431243,-8.547182,5.694721
4.419000,0.430762,-8.540977,5.701612
4.439000,0.429544,-8.538120,5.709378
4.459000,0.428349,-8.535557,5.715756
4.479000,0.428889,-8.533226,5.718614
4.499000,0.430800,-8.534079,5.723064
4.519000,0.429287,-8.534554,5.728963
4.539000,0.426216,-8.528769,5.735964
4.559000,0.423653,-8.520900,5.744290
4.579000,0.422314,-8.517018,5.750615
4.599000,0.422831,-8.518062,5.753964
4.619000,0.424014,-8.520274,5.755970
4.639000,0.424442,-8.519273,5.758558
4.659000,0.424436,-8.516340,5.762895
4.679000,0.423304,-8.514281,5.769914
4.699000,0.422973,-8.510652,5.775559
4.719000,0.424394,-8.507355,5.779599
4.739000,0.425226,-8.505049,5.785227
4.759000,0.425331,-8.503365,5.790594
4.779000,0.425483,-8.498919,5.795702
4.799000,0.427549,-8.494735,5.799742
4.819000,0.428109,-8.495907,5.803173
4.839000,0.428114,-8.495870,5.806229
4.859000,0.428406,-8.493223,5.809547
4.879000,0.428336,-8.491298,5.813267
4.899000,0.428170,-8.491044,5.817264
4.919000,0.428078,-8.489931,5.820430
4.939000,0.427341,-8.488302,5.823997
4.959000,0.427401,-8.486115,5.827144
4.979000,0.427748,-8.486128,5.830284
4.999000,0.429743,-8.485662,5.832698
5.019000,0.430258,-8.482879,5.835280
5.039000,0.431127,-8.481512,5.838147
5.059000,0.431437,-8.482744,5.840195
5.079000,0.433419,-8.482504,5.842031
5.099000,0.434400,-8.480040,5.843322
5.119000,0.434964,-8.479563,5.845558
5.139000,0.435834,-8.481462,5.847652
5.159000,0.437940,-8.481929,5.848599
5.179000,0.441318,-8.476023,5.851070
5.199000,0.441645,-8.472690,5.855622
5.219000,0.443262,-8.474082,5.856969
5.239000,0.445557,-8.477113,5.855357
5.259000,0.447566,-8.478796,5.855773
5.279000,0.449554,-8.477781,5.858985
5.299000,0.451068,-8.476728,5.860921
5.319000,0.453405,-8.475399,5.861281
5.339000,0.455407,-8.474945,5.863337
5.359000,0.460190,-8.470832,5.865756
5.379000,0.460856,-8.471860,5.867073
5.399000,0.462496,-8.472040,5.868784
5.419000,0.462396,-8.470757,5.871651
5.439000,0.463183,-8.469680,5.873843
5.459000,0.465351,-8.468589,5.875103
5.479000,0.467329,-8.467030,5.877596
5.499000,0.467444,-8.469029,5.879561
5.519000,0.468300,-8.467538,5.881721
5.539000,0.469220,-8.465223,5.883549
5.559000,0.469843,-8.466164,5.883994
5.579000,0.471058,-8.466879,5.885225
5.599000,0.472572,-8.466822,5.886683
5.619000,0.473689,-8.466885,5.888317
5.639000,0.474219,-8.466061,5.889983
5.659000,0.474600,-8.463353,5.892782
5.679000,0.475720,-8.461128,5.896223
5.699000,0.476948,-8.460434,5.898217
5.719000,0.477590,-8.461231,5.899210
5.739000,0.478488,-8.460655,5.900863
5.759000,0.479186,-8.459414,5.903625
5.779000,0.479973,-8.457780,5.906766
5.799000,0.480871,-8.456472,5.908751
5.819000,0.481425,-8.455705,5.911123
5.839000,0.481998,-8.454753,5.913447
5.859000,0.482709,-8.454481,5.915795
5.879000,0.490332,-8.450956,5.919293
5.899000,0.488876,-8.451273,5.921679
5.919000,0.488297,-8.449648,5.924975
5.939000,0.489734,-8.447369,5.927352
5.959000,0.490799,-8.446596,5.929897
5.979000,0.491541,-8.445928,5.932369
5.999000,0.491581,-8.444859,5.934887
6.019000,0.491191,-8.443440,5.937524
6.039000,0.491067,-8.442204,5.940255
6.059000,0.491807,-8.440407,5.942886
6.079000,0.492826,-8.438459,5.945587
6.099000,0.492543,-8.437201,5.948572
6.151000,0.493148,-8.436292,5.950306
6.171000,0.493412,-8.435343,5.952477
6.191000,0.493338,-8.433613,5.955657
6.211000,0.493648,-8.431709,5.958446
6.231000,0.494601,-8.430495,5.960919
6.251000,0.495114,-8.429557,5.963822
6.271000,0.495837,-8.428101,5.966002
6.291000,0.495883,-8.427329,5.968616
6.311000,0.489966,-8.423022,5.970173
6.331000,0.491746,-8.423044,5.973630
6.351000,0.491617,-8.422994,5.974563
6.371000,0.491681,-8.422968,5.976492
6.391000,0.490691,-8.421961,5.979120
6.411000,0.490955,-8.419575,5.981698
6.431000,0.491145,-8.418601,5.983914
6.451000,0.491046,-8.418524,5.985989
6.471000,0.491212,-8.417489,5.988115
6.491000,0.492644,-8.415794,5.990124
6.511000,0.494182,-8.414930,5.992927
6.531000,0.496088,-8.413357,5.996013
6.551000,0.498022,-8.412086,5.998829
6.571000,0.499674,-8.411404,6.000587
6.591000,0.502386,-8.411613,6.002304
6.611000,0.503444,-8.411630,6.004075
6.631000,0.504898,-8.410521,6.006259
6.651000,0.506528,-8.409518,6.007967
6.671000,0.507544,-8.408622,6.010185
6.691000,0.508837,-8.408715,6.012356
6.711000,0.509304,-8.408856,6.013955
6.731000,0.510459,-8.408182,6.014892
6.751000,0.512322,-8.407275,6.016896
6.771000,0.513112,-8.406689,6.019719
6.791000,0.513727,-8.406035,6.020813
6.811000,0.514073,-8.406035,6.022064
6.831000,0.514702,-8.405173,6.023734
6.851000,0.514655,-8.404488,6.025722
6.871000,0.513914,-8.402205,6.029174
6.891000,0.512940,-8.399370,6.032664
6.911000,0.512528,-8.397115,6.035712
6.931000,0.512670,-8.395312,6.038753
6.951000,0.512379,-8.394222,6.042243
6.971000,0.510966,-8.392042,6.046153
6.991000,0.510286,-8.388543,6.049784
7.011000,0.509756,-8.386229,6.053115
7.031000,0.508633,-8.384224,6.056869
7.051000,0.508024,-8.382336,6.060369
7.071000,0.507636,-8.380777,6.063881
7.091000,0.507013,-8.379952,6.066880
7.111000,0.506683,-8.378824,6.068915
7.131000,0.506237,-8.376774,6.072104
7.151000,0.505532,-8.374744,6.075547
7.171000,0.505337,-8.373142,6.078358
7.191000,0.505120,-8.371077,6.080925
7.211000,0.504283,-8.368793,6.084280
7.231000,0.503933,-8.366939,6.087291
7.251000,0.504855,-8.366109,6.088954
7.271000,0.505217,-8.366077,6.090219
7.291000,0.504092,-8.366309,6.092739
7.311000,0.502929,-8.364935,6.095258
7.331000,0.501826,-8.363335,6.097201
7.351000,0.501285,-8.361679,6.099508
7.371000,0.501324,-8.359753,6.102342
7.391000,0.500142,-8.357582,6.105268
7.411000,0.498037,-8.358282,6.107638
7.431000,0.496959,-8.358903,6.108284
7.451000,0.496659,-8.358488,6.109354
7.471000,0.495331,-8.357287,6.111803
7.491000,0.493251,-8.355333,6.114754
7.511000,0.492077,-8.353111,6.117029
7.531000,0.492615,-8.351989,6.119401
7.551000,0.492262,-8.350111,6.122922
7.571000,0.491865,-8.347869,6.125929
7.591000,0.491567,-8.346152,6.127877
7.611000,0.492229,-8.345889,6.128296
7.631000,0.493628,-8.346228,6.129454
7.651000,0.493241,-8.345868,6.131007
7.671000,0.493025,-8.345728,6.131563
7.691000,0.492500,-8.346211,6.130869
7.711000,0.493896,-8.346307,6.129990
7.731000,0.495134,-8.347168,6.129287
7.751000,0.494827,-8.347877,6.129095
7.771000,0.493925,-8.347501,6.129622
7.791000,0.492816,-8.346722,6.132179
7.811000,0.493227,-8.345016,6.132843
7.831000,0.493347,-8.344191,6.132232
7.851000,0.490281,-8.346653,6.132297
7.871000,0.487461,-8.347989,6.131069
7.891000,0.485435,-8.349767,6.130307
7.911000,0.482760,-8.351933,6.130392
7.931000,0.481236,-8.353145,6.133061
7.951000,0.480662,-8.348407,6.139654
7.971000,0.478297,-8.339214,6.147521
7.991000,0.476890,-8.330473,6.155550
8.011000,0.474396,-8.327614,6.160553
8.031000,0.470178,-8.327537,6.164190
8.051000,0.466267,-8.325665,6.168365
8.071000,0.463208,-8.322087,6.172522
8.091000,0.460779,-8.320461,6.176996
8.111000,0.458517,-8.319139,6.180325
8.131000,0.456853,-8.317111,6.183404
