gyro_time_list,gyro_x_list,gyro_y_list,gyro_z_list
0.315000,-0.521201,1.666190,1.518969
0.335000,-0.620191,1.643274,1.615362
0.355000,-0.720247,1.610114,1.690240
0.375000,-0.855028,1.579945,1.744783
0.395000,-0.987771,1.534550,1.769371
0.415000,-1.031104,1.463538,1.786971
0.435000,-0.997726,1.382361,1.798826
0.455000,-0.964185,1.302565,1.789291
0.475000,-0.939336,1.220058,1.761431
0.495000,-0.887646,1.133338,1.730504
0.515000,-0.812167,1.045644,1.695689
0.535000,-0.740655,0.955660,1.651701
0.555000,-0.683187,0.863051,1.601077
0.575000,-0.639453,0.766600,1.545377
0.595000,-0.609665,0.670181,1.485143
0.615000,-0.587985,0.576853,1.423913
0.635000,-0.565404,0.487279,1.366136
0.655000,-0.543234,0.401316,1.312322
0.675000,-0.528446,0.320287,1.259835
0.695000,-0.520598,0.247072,1.208526
0.715000,-0.513476,0.181610,1.159180
0.735000,-0.502231,0.120655,1.112278
0.755000,-0.489157,0.063939,1.066960
0.775000,-0.478278,0.014285,1.022207
0.795000,-0.469762,-0.028054,0.977441
0.815000,-0.463275,-0.065377,0.932762
0.835000,-0.457007,-0.098990,0.889222
0.855000,-0.449696,-0.128149,0.847048
0.875000,-0.440302,-0.152586,0.806521
0.895000,-0.427804,-0.173405,0.768523
0.915000,-0.412481,-0.191866,0.733482
0.935000,-0.397768,-0.207829,0.700496
0.957000,-0.387800,-0.220864,0.669130
0.977000,-0.382311,-0.232316,0.639148
0.997000,-0.378228,-0.243779,0.610744
1.017000,-0.374157,-0.255331,0.583534
1.037000,-0.370862,-0.265773,0.557159
1.057000,-0.368420,-0.274778,0.532091
1.077000,-0.365216,-0.283622,0.509137
1.097000,-0.360997,-0.292470,0.488038
1.117000,-0.357603,-0.299931,0.467667
1.137000,-0.356230,-0.305085,0.447616
1.157000,-0.356478,-0.308327,0.428743
1.177000,-0.356458,-0.312093,0.411302
1.197000,-0.355737,-0.317666,0.394231
1.217000,-0.354106,-0.324441,0.376691
1.237000,-0.351061,-0.331793,0.358740
1.257000,-0.346566,-0.340703,0.340812
1.277000,-0.340345,-0.353714,0.323507
1.297000,-0.332700,-0.370510,0.306810
1.317000,-0.323942,-0.389635,0.290343
1.337000,-0.313051,-0.410350,0.274933
1.357000,-0.299184,-0.431872,0.262095
1.377000,-0.287385,-0.452759,0.254610
1.397000,-0.289950,-0.471023,0.251864
1.417000,-0.315365,-0.483921,0.248131
1.437000,-0.360054,-0.491401,0.241068
1.457000,-0.411363,-0.495073,0.233901
1.477000,-0.462648,-0.497675,0.227582
1.497000,-0.510818,-0.501898,0.217830
1.517000,-0.552744,-0.505013,0.204041
1.537000,-0.582753,-0.503281,0.181316
1.557000,-0.559014,-0.496265,0.152376
1.577000,-0.494094,-0.443532,0.138904
1.597000,-0.456878,-0.326911,0.161332
1.617000,-0.468154,-0.195238,0.225640
1.637000,-0.578751,-0.329429,0.101721
1.657000,-0.683832,-0.474650,-0.036154
1.677000,-0.511277,-0.629723,-0.187532
1.697000,-0.318785,-0.650017,-0.351380
1.717000,-0.107978,-0.678732,-0.435145
1.737000,0.026246,-0.742187,-0.486542
1.757000,-0.204071,-0.778736,-0.431861
1.777000,-0.444716,-0.779905,-0.316489
1.797000,-0.691089,-0.701808,-0.136328
1.817000,-0.842892,-0.593882,-0.103626
1.837000,-0.725610,-0.460796,-0.030808
1.857000,-0.614704,-0.359270,-0.005948
1.877000,-0.613267,-0.293730,0.030303
1.897000,-0.559486,-0.251123,0.068307
1.917000,-0.407566,-0.183078,0.103425
1.937000,-0.221492,-0.061534,0.127756
1.957000,-0.103208,0.100109,0.126184
1.977000,-0.076715,0.264285,0.128005
1.997000,-0.050996,0.385996,0.136039
2.017000,0.028820,0.431133,0.144163
2.037000,0.140599,0.388107,0.155670
2.057000,0.225855,0.339635,0.149985
2.077000,0.307474,0.296924,0.128829
2.097000,0.337465,0.268853,0.118761
2.117000,0.308249,0.254264,0.115591
2.137000,0.241569,0.246317,0.107923
2.157000,0.169003,0.241922,0.103390
2.177000,0.106713,0.239897,0.099411
2.197000,0.058884,0.234478,0.097322
2.217000,0.025067,0.221127,0.093352
2.237000,0.001503,0.202543,0.085266
2.257000,-0.015194,0.184188,0.077344
2.277000,-0.029600,0.168713,0.069776
2.297000,-0.044147,0.156822,0.062406
2.334000,-0.056962,0.147692,0.057389
2.354000,-0.067022,0.140828,0.052710
2.374000,-0.074520,0.135782,0.048175
2.394000,-0.079673,0.131849,0.043674
2.414000,-0.084919,0.128039,0.039657
2.434000,-0.091207,0.123776,0.035632
2.454000,-0.096445,0.118987,0.031685
2.474000,-0.097870,0.114639,0.028442
2.494000,-0.096275,0.111310,0.026050
2.514000,-0.094413,0.108629,0.023997
2.534000,-0.092629,0.106013,0.022028
2.554000,-0.090834,0.103502,0.020289
2.574000,-0.089362,0.101389,0.019097
2.594000,-0.090046,0.099397,0.018676
2.614000,-0.094782,0.097214,0.018549
2.634000,-0.102803,0.095121,0.018287
2.654000,-0.111007,0.093301,0.017717
2.674000,-0.116632,0.091641,0.016874
2.694000,-0.118429,0.090178,0.015720
2.714000,-0.117036,0.088844,0.014414
2.734000,-0.113526,0.087637,0.013163
2.754000,-0.109156,0.086474,0.012098
2.774000,-0.105318,0.084798,0.010850
2.794000,-0.102232,0.082680,0.009418
2.814000,-0.099710,0.080486,0.008207
2.834000,-0.097924,0.078600,0.007405
2.854000,-0.097956,0.076816,0.007106
2.874000,-0.099863,0.075024,0.007055
2.894000,-0.101877,0.073341,0.007072
2.914000,-0.102565,0.071980,0.007207
2.934000,-0.101463,0.071150,0.007475
2.958000,-0.098678,0.070898,0.007813
2.978000,-0.095454,0.070647,0.007858
2.998000,-0.091945,0.070015,0.007421
3.018000,-0.087443,0.069116,0.006733
3.038000,-0.081953,0.068215,0.005944
3.058000,-0.077252,0.067328,0.005025
3.078000,-0.075496,0.066279,0.004208
3.098000,-0.077246,0.065060,0.003476
3.118000,-0.080822,0.063821,0.002853
3.138000,-0.083928,0.062689,0.002521
3.158000,-0.085338,0.061742,0.002408
3.178000,-0.085087,0.060857,0.002341
3.198000,-0.083850,0.060013,0.002138
3.218000,-0.082315,0.059132,0.001729
3.238000,-0.080732,0.058247,0.001153
3.258000,-0.079299,0.057436,0.000544
3.278000,-0.078311,0.056742,0.000007
3.298000,-0.078038,0.056114,-0.000501
3.318000,-0.078395,0.055535,-0.000984
3.338000,-0.078965,0.054931,-0.001405
3.358000,-0.079338,0.054245,-0.001733
3.378000,-0.079420,0.053485,-0.001978
3.398000,-0.079309,0.052740,-0.002154
3.418000,-0.078900,0.052133,-0.002289
3.438000,-0.078146,0.051665,-0.002414
3.458000,-0.077091,0.051300,-0.002529
3.478000,-0.075889,0.051012,-0.002654
3.498000,-0.074780,0.050672,-0.002855
3.518000,-0.073950,0.050245,-0.003115
3.538000,-0.073346,0.049839,-0.003354
3.558000,-0.073091,0.049405,-0.003543
3.578000,-0.073438,0.048875,-0.003658
3.598000,-0.073933,0.048364,-0.003768
3.618000,-0.073907,0.047947,-0.003937
3.638000,-0.073192,0.047621,-0.004113
3.658000,-0.072190,0.047358,-0.004292
3.678000,-0.071392,0.047112,-0.004459
3.698000,-0.070923,0.046839,-0.004635
3.718000,-0.070555,0.046567,-0.004834
3.738000,-0.070238,0.046259,-0.005016
3.758000,-0.070069,0.045974,-0.005183
3.778000,-0.070024,0.045710,-0.005338
3.798000,-0.070004,0.045472,-0.005442
3.818000,-0.069909,0.045261,-0.005522
3.838000,-0.069657,0.045091,-0.005621
3.858000,-0.069266,0.044924,-0.005718
3.878000,-0.068811,0.044727,-0.005826
3.898000,-0.068351,0.044526,-0.005944
3.918000,-0.067977,0.044303,-0.006052
3.938000,-0.067757,0.044064,-0.006122
3.958000,-0.067625,0.043837,-0.006173
3.978000,-0.067491,0.043703,-0.006228
3.998000,-0.067174,0.043590,-0.006351
4.018000,-0.066666,0.043415,-0.006534
4.038000,-0.066186,0.043229,-0.006678
4.058000,-0.065914,0.043016,-0.006766
4.078000,-0.066064,0.042710,-0.006793
4.098000,-0.066456,0.042375,-0.006805
4.118000,-0.066641,0.042119,-0.006870
4.138000,-0.066380,0.041949,-0.006954
4.158000,-0.065852,0.041803,-0.007010
4.178000,-0.065380,0.041629,-0.007051
4.198000,-0.065049,0.041415,-0.007131
4.218000,-0.064697,0.041217,-0.007254
4.238000,-0.064330,0.041055,-0.007377
4.258000,-0.064081,0.040887,-0.007498
4.278000,-0.063961,0.040711,-0.007623
4.298000,-0.063962,0.040529,-0.007694
4.318000,-0.064071,0.040317,-0.007767
4.345000,-0.064031,0.040148,-0.007850
4.365000,-0.063700,0.039999,-0.007945
4.385000,-0.063218,0.039816,-0.008048
4.405000,-0.062840,0.039615,-0.008151
4.425000,-0.062687,0.039421,-0.008244
4.445000,-0.062729,0.039207,-0.008319
4.465000,-0.062839,0.038975,-0.008371
4.485000,-0.062884,0.038800,-0.008423
4.505000,-0.062736,0.038714,-0.008489
4.525000,-0.062316,0.038535,-0.008611
4.545000,-0.061751,0.038329,-0.008708
4.565000,-0.061308,0.038128,-0.008761
4.585000,-0.061416,0.037827,-0.008751
4.605000,-0.061949,0.037485,-0.008727
4.625000,-0.062229,0.037250,-0.008747
4.645000,-0.061894,0.037115,-0.008804
4.665000,-0.061258,0.036978,-0.008867
4.685000,-0.060724,0.036803,-0.008938
4.705000,-0.060500,0.036604,-0.009014
4.725000,-0.060467,0.036430,-0.009109
4.745000,-0.060498,0.036292,-0.009181
4.765000,-0.060583,0.036145,-0.009259
4.785000,-0.060559,0.036004,-0.009370
4.805000,-0.060328,0.035883,-0.009467
4.825000,-0.060061,0.035736,-0.009535
4.845000,-0.059894,0.035577,-0.009604
4.865000,-0.059716,0.035449,-0.009682
4.885000,-0.059366,0.035362,-0.009752
4.905000,-0.058936,0.035281,-0.009824
4.925000,-0.058686,0.035158,-0.009891
4.945000,-0.058702,0.034983,-0.009942
4.965000,-0.058903,0.034821,-0.009952
4.985000,-0.059116,0.034708,-0.009924
5.005000,-0.059163,0.034713,-0.009835
5.025000,-0.059071,0.034924,-0.009707
5.045000,-0.058499,0.035327,-0.009727
5.065000,-0.056998,0.035818,-0.009816
5.085000,-0.054861,0.036313,-0.009954
5.105000,-0.052776,0.036846,-0.010100
5.125000,-0.050969,0.037379,-0.010452
5.145000,-0.048877,0.038030,-0.010839
5.165000,-0.046961,0.038543,-0.011069
5.185000,-0.046310,0.038528,-0.010967
5.205000,-0.047822,0.038009,-0.010690
5.225000,-0.051684,0.037342,-0.010468
5.245000,-0.056150,0.036953,-0.010434
5.265000,-0.059540,0.036952,-0.010418
5.285000,-0.061721,0.037130,-0.010274
5.305000,-0.063602,0.037281,-0.009915
5.325000,-0.066460,0.037484,-0.009455
5.345000,-0.069994,0.037869,-0.009027
5.365000,-0.073048,0.038556,-0.008727
5.385000,-0.074929,0.039396,-0.008549
5.405000,-0.075497,0.040256,-0.008503
5.425000,-0.075039,0.041115,-0.008599
5.445000,-0.074004,0.041977,-0.008822
5.465000,-0.072816,0.042631,-0.009117
5.485000,-0.072036,0.042798,-0.009449
5.505000,-0.072696,0.042686,-0.009860
5.525000,-0.075224,0.042633,-0.010474
5.545000,-0.078611,0.042551,-0.011239
5.565000,-0.082766,0.042300,-0.011958
5.585000,-0.088423,0.042155,-0.012852
5.605000,-0.094748,0.042301,-0.013704
5.625000,-0.100715,0.042230,-0.014036
5.645000,-0.106054,0.041674,-0.013290
5.665000,-0.112619,0.040677,-0.012034
5.685000,-0.119864,0.039697,-0.010891
5.705000,-0.125812,0.038742,-0.009782
5.725000,-0.128640,0.037550,-0.008255
5.745000,-0.129333,0.035988,-0.006056
5.765000,-0.128672,0.034732,-0.003643
5.785000,-0.127384,0.034161,-0.001643
5.805000,-0.127212,0.033687,-0.000361
5.825000,-0.129422,0.032550,-0.000146
5.845000,-0.133641,0.031042,-0.000759
5.865000,-0.139343,0.029513,-0.001286
5.885000,-0.146493,0.026878,-0.002291
5.905000,-0.152173,0.022652,-0.002918
5.925000,-0.153422,0.018392,-0.002782
5.945000,-0.152947,0.014568,-0.002946
5.965000,-0.153719,0.010560,-0.004869
5.985000,-0.153351,0.006387,-0.008014
6.005000,-0.146683,0.002972,-0.010775
6.025000,-0.132194,0.000142,-0.012611
6.045000,-0.112344,-0.001918,-0.013291
6.065000,-0.092339,-0.002446,-0.012041
6.085000,-0.078086,-0.003008,-0.011042
6.105000,-0.070361,-0.004274,-0.011871
6.125000,-0.065635,-0.006249,-0.013342
6.145000,-0.060726,-0.007908,-0.014182
6.165000,-0.053638,-0.008704,-0.015196
6.185000,-0.043475,-0.009152,-0.016893
6.205000,-0.030900,-0.009835,-0.017470
6.225000,-0.021120,-0.011363,-0.017742
6.245000,-0.019636,-0.014070,-0.020299
6.265000,-0.023525,-0.017002,-0.024840
6.285000,-0.027632,-0.019913,-0.029886
6.305000,-0.029248,-0.021588,-0.034604
6.325000,-0.028301,-0.021973,-0.040267
