accel_time_list,accel_x_list,accel_y_list,accel_z_list
0.430000,0.651223,-7.072472,4.546589
0.450000,0.755371,-7.363367,4.243722
0.470000,0.649478,-7.559272,4.041374
0.490000,0.383839,-7.585610,3.844134
0.510000,0.050875,-7.636557,3.695450
0.530000,-0.291037,-7.863535,3.537792
0.550000,-0.657286,-8.340234,3.401461
0.570000,-1.149073,-9.099207,3.348290
0.590000,-1.779491,-9.992398,3.279701
0.610000,-2.436059,-10.776829,3.140884
0.630000,-2.994451,-11.311581,3.000709
0.650000,-3.416227,-11.638269,2.907927
0.670000,-3.708730,-11.774232,2.810977
0.690000,-3.878741,-11.708268,2.673815
0.710000,-3.926454,-11.446362,2.509037
0.730000,-3.890706,-10.995214,2.340296
0.750000,-3.802687,-10.370964,2.169591
0.770000,-3.680910,-9.606825,2.015518
0.790000,-3.553434,-8.736165,1.899386
0.810000,-3.457481,-7.835141,1.843273
0.830000,-3.414008,-7.023968,1.842076
0.850000,-3.417741,-6.415251,1.887662
0.870000,-3.447699,-6.053886,1.963649
0.890000,-3.494118,-5.926995,2.095209
0.910000,-3.568904,-6.041752,2.304676
0.930000,-3.736898,-6.403243,2.571808
0.950000,-4.027870,-6.991387,2.854109
0.970000,-4.324018,-7.587083,3.139862
0.990000,-4.549950,-8.117273,3.410706
1.010000,-4.682015,-8.656573,3.627634
1.030000,-4.716051,-9.050963,3.774742
1.050000,-4.703734,-9.217642,3.888420
1.070000,-4.664431,-9.219589,3.969191
1.090000,-4.583038,-9.153408,4.005898
1.110000,-4.442540,-9.067669,3.988403
1.130000,-4.239932,-8.977930,3.928715
1.150000,-3.991696,-8.895074,3.851695
1.170000,-3.740865,-8.826241,3.791674
1.190000,-3.517144,-8.777263,3.741600
1.210000,-3.337741,-8.790915,3.698849
1.230000,-3.218044,-8.896633,3.670820
1.250000,-3.187859,-9.122553,3.657653
1.270000,-3.248847,-9.455442,3.640805
1.290000,-3.373596,-9.833134,3.616169
1.310000,-3.559685,-10.202917,3.602017
1.330000,-3.799069,-10.498697,3.582325
1.350000,-4.042183,-10.647743,3.551747
1.370000,-4.224158,-10.618805,3.508914
1.390000,-4.327838,-10.438149,3.444613
1.410000,-4.368418,-10.133914,3.359075
1.430000,-4.361083,-9.715466,3.251076
1.450000,-4.305673,-9.194765,3.124666
1.470000,-4.230017,-8.603275,2.995911
1.490000,-4.174310,-7.978346,2.876538
1.510000,-4.166642,-7.378985,2.777342
1.530000,-4.204719,-6.871367,2.706225
1.550000,-4.270882,-6.530220,2.679750
1.570000,-4.381275,-6.446052,2.713983
1.590000,-4.562441,-6.695039,2.773299
1.610000,-4.800651,-7.218270,2.846331
1.630000,-5.037786,-7.830533,2.962210
1.650000,-5.258211,-8.371814,3.109702
1.670000,-5.465132,-8.895485,3.252771
1.690000,-5.556114,-9.376035,3.361860
1.710000,-5.519009,-9.694205,3.431594
1.730000,-5.400020,-9.792842,3.466706
1.750000,-5.219652,-9.717190,3.480644
1.770000,-4.980523,-9.549785,3.480660
1.790000,-4.681739,-9.340742,3.470641
1.810000,-4.342100,-9.121662,3.457494
1.830000,-3.996398,-8.911366,3.440969
1.850000,-3.649462,-8.709993,3.418044
1.870000,-3.304888,-8.530089,3.389284
1.890000,-2.986016,-8.399449,3.360276
1.910000,-2.717040,-8.345195,3.342800
1.930000,-2.510035,-8.430079,3.345814
1.950000,-2.375855,-8.771585,3.369901
1.970000,-2.430967,-9.374635,3.419276
1.990000,-2.694643,-10.172552,3.453357
2.010000,-3.028361,-10.831916,3.467805
2.030000,-3.290750,-11.244325,3.478250
2.050000,-3.461650,-11.436172,3.478770
2.070000,-3.593239,-11.401105,3.454733
2.090000,-3.683741,-11.175002,3.412576
2.110000,-3.742443,-10.801761,3.351674
2.130000,-3.797343,-10.299254,3.274898
2.150000,-3.846477,-9.661278,3.185358
2.170000,-3.871068,-8.889760,3.093538
2.190000,-3.869764,-8.023127,3.009130
2.210000,-3.872947,-7.173118,2.945477
2.230000,-3.909591,-6.475163,2.905097
2.250000,-3.987094,-6.002249,2.904020
2.270000,-4.090290,-5.788789,2.945275
2.290000,-4.243621,-5.898373,3.029595
2.310000,-4.456581,-6.399107,3.147117
2.330000,-4.682705,-7.116558,3.285733
2.350000,-4.863432,-7.832778,3.425635
2.370000,-4.982568,-8.620222,3.549339
2.390000,-4.982174,-9.262027,3.650881
2.410000,-4.888361,-9.563669,3.727209
2.442000,-4.666725,-9.439311,3.756222
2.462000,-4.382362,-9.250020,3.773567
2.482000,-4.074848,-9.063924,3.779867
2.502000,-3.780624,-8.902095,3.779629
2.522000,-3.511154,-8.778334,3.779341
2.542000,-3.253458,-8.666361,3.774064
2.562000,-3.009822,-8.545991,3.765383
2.582000,-2.780524,-8.443123,3.762456
2.602000,-2.579246,-8.423573,3.779861
2.622000,-2.465269,-8.591934,3.829241
2.642000,-2.513562,-9.003259,3.887626
2.662000,-2.732822,-9.584346,3.941005
2.682000,-3.040512,-10.094286,3.988031
2.702000,-3.327853,-10.381244,4.030874
2.722000,-3.543254,-10.468476,4.062679
2.742000,-3.693184,-10.406384,4.068138
2.762000,-3.783832,-10.220049,4.047460
2.782000,-3.823039,-9.922328,4.005133
2.802000,-3.834140,-9.518800,3.950157
2.822000,-3.828055,-9.009044,3.888767
2.842000,-3.813076,-8.397038,3.820720
2.862000,-3.805217,-7.731000,3.749532
2.882000,-3.814365,-7.103474,3.682140
2.902000,-3.838507,-6.593027,3.628645
2.922000,-3.886228,-6.237854,3.605691
2.942000,-3.970689,-6.044638,3.621380
2.962000,-4.104877,-6.059639,3.664912
2.982000,-4.285741,-6.362271,3.730519
3.002000,-4.497337,-6.943624,3.821038
3.022000,-4.697722,-7.593466,3.915002
3.042000,-4.863325,-8.216162,4.011603
3.062000,-4.933808,-8.711339,4.094910
3.082000,-4.899029,-8.954578,4.156870
3.102000,-4.788179,-8.967256,4.203716
3.122000,-4.621060,-8.854154,4.237231
3.142000,-4.422408,-8.714314,4.262316
3.162000,-4.223281,-8.608735,4.279058
3.182000,-4.050214,-8.558980,4.289895
3.202000,-3.906822,-8.517558,4.303009
3.222000,-3.789514,-8.447388,4.320418
3.242000,-3.703722,-8.367685,4.337501
3.262000,-3.645812,-8.312203,4.348636
3.282000,-3.612972,-8.322381,4.362950
3.302000,-3.635938,-8.412611,4.386119
3.322000,-3.736989,-8.561369,4.406876
3.342000,-3.912289,-8.735335,4.414055
3.362000,-4.135146,-8.894912,4.412883
3.382000,-4.352859,-8.986131,4.399710
3.402000,-4.515860,-8.959159,4.375092
3.422000,-4.611971,-8.832975,4.343524
3.442000,-4.638843,-8.640374,4.300577
3.462000,-4.599693,-8.410534,4.244947
3.482000,-4.519303,-8.153849,4.187120
3.502000,-4.445053,-7.867082,4.128224
3.522000,-4.416187,-7.558494,4.065752
3.542000,-4.422903,-7.262745,4.001600
3.562000,-4.434350,-6.997050,3.938137
3.583000,-4.466259,-6.787242,3.886116
3.603000,-4.542991,-6.646327,3.840768
3.623000,-4.682241,-6.631482,3.808051
3.643000,-4.914500,-6.877956,3.794992
3.663000,-5.228807,-7.376002,3.757893
3.683000,-5.502469,-7.832732,3.713392
3.703000,-5.700514,-8.190443,3.684955
3.723000,-5.794389,-8.535488,3.659617
3.743000,-5.759419,-8.825937,3.630337
3.763000,-5.661882,-9.004766,3.602526
3.783000,-5.559067,-9.094320,3.584065
3.803000,-5.451678,-9.157891,3.572890
3.823000,-5.306516,-9.209208,3.565979
3.843000,-5.115614,-9.228328,3.573120
3.863000,-4.902608,-9.200669,3.596287
3.883000,-4.725684,-9.150766,3.627326
3.903000,-4.575431,-9.045982,3.667171
3.923000,-4.424631,-8.886240,3.713340
3.943000,-4.289366,-8.688993,3.767383
3.963000,-4.168324,-8.449284,3.830991
3.983000,-4.071642,-8.276339,3.894172
4.003000,-4.042468,-8.361627,3.954202
4.023000,-4.058001,-8.683863,3.982915
4.043000,-4.085468,-8.956360,3.996858
4.063000,-4.117533,-8.991020,4.005564
4.083000,-4.153173,-8.898825,4.007318
4.103000,-4.162118,-8.764882,4.000669
4.123000,-4.148363,-8.617550,3.977154
4.143000,-4.132353,-8.455200,3.932456
4.163000,-4.126500,-8.273236,3.881901
4.183000,-4.137761,-8.097966,3.836219
4.203000,-4.146691,-7.922121,3.788710
4.223000,-4.137839,-7.745206,3.734136
4.243000,-4.119210,-7.577888,3.683639
4.263000,-4.113830,-7.455006,3.642068
4.283000,-4.127911,-7.400676,3.606985
4.303000,-4.165144,-7.428811,3.589470
4.323000,-4.233697,-7.518954,3.588131
4.343000,-4.332094,-7.639660,3.598052
4.363000,-4.435151,-7.793637,3.621721
4.383000,-4.523375,-8.014063,3.646890
4.403000,-4.590773,-8.317590,3.672859
4.423000,-4.630320,-8.665204,3.705986
4.464000,-4.601216,-8.844116,3.736951
4.484000,-4.514625,-8.941530,3.767516
4.504000,-4.368698,-8.980712,3.802093
4.524000,-4.187322,-8.976464,3.835104
4.544000,-3.993536,-8.944946,3.867222
4.564000,-3.806700,-8.897651,3.897096
4.584000,-3.634223,-8.837399,3.923073
4.604000,-3.482264,-8.780878,3.947830
4.624000,-3.355240,-8.749979,3.969249
4.644000,-3.256634,-8.779125,3.989824
4.664000,-3.199914,-8.884145,4.015591
4.684000,-3.204062,-9.051527,4.042635
4.704000,-3.284300,-9.228756,4.064225
4.724000,-3.430645,-9.375357,4.079351
4.744000,-3.620444,-9.463565,4.081809
4.764000,-3.806069,-9.439788,4.072974
4.784000,-3.939215,-9.308827,4.054044
4.804000,-3.997887,-9.101880,4.020114
4.824000,-4.007455,-8.844585,3.974314
4.844000,-3.995780,-8.547565,3.923223
4.864000,-3.984833,-8.226009,3.871563
4.884000,-3.989090,-7.898478,3.821442
4.904000,-4.021453,-7.598819,3.775786
4.924000,-4.079268,-7.360427,3.735266
4.944000,-4.149616,-7.192031,3.703176
4.964000,-4.220112,-7.081604,3.693165
4.984000,-4.298842,-7.020584,3.714820
5.004000,-4.418335,-7.068386,3.763794
5.024000,-4.562058,-7.298794,3.830900
5.044000,-4.694457,-7.719357,3.916890
5.064000,-4.813055,-8.196092,4.006147
5.084000,-4.898298,-8.627546,4.087195
5.104000,-4.891353,-8.963238,4.158946
5.124000,-4.789701,-9.183733,4.220021
5.144000,-4.643909,-9.287514,4.272574
5.164000,-4.496603,-9.300626,4.314041
5.184000,-4.351597,-9.259395,4.347074
5.204000,-4.194608,-9.181008,4.372525
5.224000,-4.034889,-9.063837,4.389350
5.244000,-3.894695,-8.918248,4.397596
5.264000,-3.777974,-8.760874,4.400119
5.284000,-3.676994,-8.606727,4.396891
5.304000,-3.591328,-8.463684,4.388758
5.324000,-3.520355,-8.369649,4.385626
5.344000,-3.489811,-8.370511,4.390178
5.364000,-3.531722,-8.456407,4.391501
5.384000,-3.650753,-8.576862,4.391802
5.404000,-3.842856,-8.677732,4.389089
5.424000,-4.051108,-8.688787,4.368748
5.444000,-4.228221,-8.619188,4.339785
5.464000,-4.348541,-8.505050,4.313179
5.484000,-4.410449,-8.364733,4.284165
5.504000,-4.436926,-8.206028,4.250711
5.524000,-4.442262,-8.014461,4.211727
5.544000,-4.432111,-7.780999,4.172947
5.564000,-4.399749,-7.520250,4.141360
5.584000,-4.349020,-7.267031,4.119060
5.604000,-4.299524,-7.067280,4.103184
5.624000,-4.275620,-6.949763,4.105529
5.644000,-4.259613,-6.925436,4.123011
5.664000,-4.239427,-7.033549,4.159037
5.684000,-4.265844,-7.350093,4.220819
5.704000,-4.351232,-7.844751,4.302353
5.724000,-4.441854,-8.296547,4.384441
5.744000,-4.494781,-8.679248,4.453300
5.764000,-4.488266,-8.978773,4.504611
5.784000,-4.446885,-9.115613,4.544344
5.804000,-4.381481,-9.109526,4.581384
5.824000,-4.296299,-9.072186,4.613729
5.844000,-4.209213,-9.069585,4.632187
5.864000,-4.141485,-9.059970,4.631778
5.884000,-4.078989,-8.979389,4.624001
5.904000,-4.010741,-8.817704,4.613595
5.924000,-3.938869,-8.606752,4.605212
5.944000,-3.875033,-8.399591,4.593186
5.964000,-3.816242,-8.227012,4.569738
5.984000,-3.753412,-8.074754,4.546821
6.004000,-3.721902,-7.939790,4.552329
6.024000,-3.723484,-7.948468,4.573061
6.044000,-3.774203,-8.099295,4.588587
6.064000,-3.817858,-8.363499,4.592372
6.084000,-3.879281,-8.633021,4.595994
6.104000,-3.976876,-8.745928,4.607701
6.124000,-4.011062,-8.755020,4.608685
6.144000,-4.034878,-8.776847,4.587879
6.164000,-4.020622,-8.687683,4.562160
6.184000,-3.951999,-8.491810,4.539662
6.204000,-3.884465,-8.237850,4.519116
6.224000,-3.831359,-7.980999,4.507290
6.244000,-3.779864,-7.834808,4.502991
6.264000,-3.712575,-7.741457,4.507947
6.284000,-3.664652,-7.675920,4.521659
6.304000,-3.638740,-7.638893,4.535176
6.324000,-3.601833,-7.643453,4.550893
6.344000,-3.622841,-7.761311,4.576134
6.364000,-3.691615,-7.969050,4.603893
6.384000,-3.779713,-8.196000,4.648428
6.404000,-3.858667,-8.366921,4.689070
6.424000,-3.909362,-8.482883,4.711921
6.444000,-3.943482,-8.534010,4.714722
