gyro_time_list,gyro_x_list,gyro_y_list,gyro_z_list
0.015000,0.488159,-0.060354,-0.202645
0.035000,0.702662,-0.121307,-0.203444
0.055000,0.865064,-0.122576,-0.128877
0.075000,1.100607,-0.136258,-0.120932
0.095000,1.257944,-0.144068,-0.091567
0.115000,1.284407,-0.152014,-0.056563
0.135000,1.227469,-0.165545,-0.032917
0.155000,1.132073,-0.182711,-0.015337
0.175000,1.015294,-0.197553,-0.000566
0.195000,0.880313,-0.208260,0.011533
0.215000,0.735778,-0.215747,0.020549
0.235000,0.602244,-0.221309,0.030662
0.255000,0.495744,-0.224191,0.043883
0.275000,0.419214,-0.223459,0.060708
0.295000,0.366005,-0.219113,0.080659
0.315000,0.327575,-0.211819,0.103528
0.335000,0.297671,-0.202318,0.128406
0.355000,0.273041,-0.191109,0.154282
0.375000,0.251915,-0.178822,0.180810
0.395000,0.231785,-0.166033,0.207280
0.415000,0.210268,-0.153058,0.233011
0.435000,0.186516,-0.140388,0.257297
0.455000,0.161020,-0.128271,0.279057
0.475000,0.134664,-0.117349,0.297804
0.495000,0.107246,-0.108276,0.312807
0.515000,0.075807,-0.100604,0.322865
0.535000,0.037952,-0.093418,0.327868
0.555000,-0.005419,-0.086035,0.328619
0.575000,-0.049896,-0.078136,0.326660
0.595000,-0.089613,-0.070262,0.324419
0.615000,-0.121302,-0.062897,0.322883
0.635000,-0.146434,-0.055575,0.322050
0.655000,-0.168525,-0.047515,0.321526
0.675000,-0.188414,-0.038379,0.321184
0.695000,-0.205550,-0.029041,0.321092
0.715000,-0.221530,-0.020380,0.320469
0.735000,-0.237768,-0.012406,0.318303
0.755000,-0.253994,-0.004396,0.314001
0.775000,-0.269885,0.001879,0.308171
0.795000,-0.285379,0.006663,0.303946
0.815000,-0.300483,0.012592,0.302835
0.835000,-0.310766,0.023617,0.306723
0.855000,-0.312721,0.038895,0.315407
0.875000,-0.308150,0.054856,0.325450
0.895000,-0.300664,0.071457,0.336231
0.915000,-0.293868,0.090093,0.347390
0.935000,-0.293929,0.110391,0.356101
0.955000,-0.302489,0.131387,0.362643
0.975000,-0.317925,0.153214,0.367373
0.995000,-0.335639,0.176685,0.371684
1.015000,-0.349104,0.200760,0.377513
1.035000,-0.354218,0.224006,0.385317
1.055000,-0.351485,0.246401,0.395453
1.075000,-0.345776,0.268676,0.407395
1.095000,-0.342731,0.291310,0.419438
1.115000,-0.343307,0.313594,0.430602
1.135000,-0.345651,0.335492,0.439925
1.155000,-0.347752,0.357382,0.447778
1.175000,-0.348745,0.378899,0.454064
1.195000,-0.348157,0.399131,0.458282
1.215000,-0.344303,0.417384,0.461109
1.235000,-0.336731,0.432843,0.462705
1.255000,-0.327021,0.445160,0.463281
1.275000,-0.318024,0.454393,0.463015
1.295000,-0.311981,0.460781,0.461356
1.315000,-0.308109,0.464204,0.458401
1.335000,-0.304848,0.464393,0.454256
1.355000,-0.301761,0.461167,0.449052
1.375000,-0.300128,0.455296,0.442013
1.395000,-0.300378,0.447325,0.432509
1.415000,-0.300747,0.437549,0.421516
1.435000,-0.299690,0.426044,0.409273
1.455000,-0.296652,0.413163,0.396010
1.475000,-0.291196,0.398484,0.381557
1.495000,-0.282086,0.381142,0.367368
1.515000,-0.271211,0.362542,0.354037
1.535000,-0.261128,0.344183,0.339934
1.555000,-0.251726,0.326538,0.324907
1.575000,-0.241848,0.308692,0.309779
1.595000,-0.232629,0.290047,0.294766
1.615000,-0.225991,0.271114,0.280013
1.635000,-0.222081,0.252338,0.265368
1.655000,-0.217335,0.232984,0.251810
1.675000,-0.209865,0.210594,0.238866
1.695000,-0.202477,0.184465,0.226392
1.715000,-0.198102,0.155513,0.215583
1.735000,-0.201099,0.123011,0.204366
1.755000,-0.214189,0.084599,0.186658
1.775000,-0.230847,0.040006,0.168046
1.795000,-0.240378,-0.010967,0.150219
1.815000,-0.244700,-0.068495,0.132602
1.835000,-0.251677,-0.130044,0.114053
1.855000,-0.261893,-0.194859,0.094587
1.875000,-0.268553,-0.259917,0.072299
1.895000,-0.268681,-0.321028,0.044225
1.915000,-0.261153,-0.370317,0.008177
1.935000,-0.246412,-0.399385,-0.033782
1.955000,-0.249705,-0.393855,-0.068039
1.975000,-0.272628,-0.299039,-0.081231
1.995000,-0.342967,-0.437575,-0.180244
2.032000,-0.251228,-0.586293,-0.265262
2.052000,-0.263057,-0.743807,-0.355427
2.072000,-0.355082,-0.908353,-0.391380
2.092000,-0.425199,-1.077871,-0.398076
2.112000,-0.330660,-1.250128,-0.448094
2.132000,-0.276363,-1.422853,-0.507623
2.152000,-0.300173,-1.593867,-0.555143
2.172000,-0.327594,-1.710708,-0.565804
2.192000,-0.316463,-1.716070,-0.595497
2.212000,-0.305202,-1.680950,-0.550967
2.232000,-0.353896,-1.611791,-0.521703
2.252000,-0.473614,-1.524737,-0.502844
2.272000,-0.603026,-1.459231,-0.520196
2.292000,-0.680655,-1.385858,-0.525476
2.312000,-0.636081,-1.278088,-0.522181
2.332000,-0.514997,-1.132541,-0.538660
2.352000,-0.407030,-0.914082,-0.576169
2.372000,-0.445474,-0.726860,-0.572597
2.392000,-0.560114,-0.676020,-0.519334
2.412000,-0.551852,-0.637886,-0.467607
2.432000,-0.443634,-0.596503,-0.427967
2.452000,-0.351221,-0.568487,-0.384950
2.472000,-0.291456,-0.562410,-0.353549
2.492000,-0.246938,-0.554723,-0.325508
2.512000,-0.195590,-0.528231,-0.301433
2.532000,-0.163978,-0.496702,-0.290649
2.552000,-0.186217,-0.471934,-0.283171
2.572000,-0.220117,-0.451904,-0.265925
2.592000,-0.204319,-0.429060,-0.253057
2.612000,-0.175303,-0.403827,-0.243647
2.632000,-0.196053,-0.386302,-0.234431
2.652000,-0.251838,-0.375890,-0.220143
2.672000,-0.285648,-0.367139,-0.202145
2.692000,-0.293861,-0.358833,-0.189281
2.712000,-0.300904,-0.351712,-0.179561
2.732000,-0.298484,-0.346296,-0.169665
2.752000,-0.280283,-0.340449,-0.158348
2.772000,-0.257110,-0.332598,-0.147309
2.792000,-0.246730,-0.322377,-0.139822
2.812000,-0.255867,-0.313796,-0.135706
2.832000,-0.276368,-0.306184,-0.133143
2.852000,-0.298230,-0.299945,-0.131904
2.872000,-0.314611,-0.295092,-0.130731
2.892000,-0.322741,-0.291170,-0.129661
2.912000,-0.321492,-0.287033,-0.128184
2.932000,-0.318712,-0.281704,-0.126453
2.952000,-0.320727,-0.275068,-0.125622
2.972000,-0.312013,-0.266366,-0.124986
2.992000,-0.287962,-0.257269,-0.123678
3.012000,-0.259869,-0.248543,-0.122488
3.032000,-0.236457,-0.240660,-0.120987
3.052000,-0.221902,-0.233791,-0.119657
3.072000,-0.214005,-0.227556,-0.117826
3.092000,-0.208243,-0.220943,-0.116296
3.112000,-0.203601,-0.213673,-0.114987
3.132000,-0.199011,-0.206739,-0.113422
3.152000,-0.191804,-0.199988,-0.111659
3.172000,-0.182708,-0.192992,-0.109554
3.192000,-0.174385,-0.186200,-0.107325
3.212000,-0.167782,-0.180171,-0.105193
3.232000,-0.161859,-0.174866,-0.103342
3.252000,-0.156115,-0.169980,-0.101873
3.272000,-0.151745,-0.165121,-0.100163
3.292000,-0.150188,-0.160613,-0.097891
3.312000,-0.150328,-0.156662,-0.095711
3.332000,-0.149763,-0.152962,-0.093728
3.352000,-0.148041,-0.149329,-0.092007
3.372000,-0.146289,-0.146003,-0.090544
3.392000,-0.145400,-0.143040,-0.089268
3.412000,-0.145476,-0.140147,-0.087748
3.432000,-0.146475,-0.137242,-0.086261
3.452000,-0.147823,-0.134538,-0.084735
3.472000,-0.148632,-0.132110,-0.083646
3.492000,-0.148412,-0.129866,-0.082906
3.512000,-0.147070,-0.127487,-0.082376
3.532000,-0.145559,-0.124942,-0.081888
3.552000,-0.144883,-0.122510,-0.081273
3.572000,-0.145049,-0.120177,-0.080475
3.592000,-0.145326,-0.117794,-0.079554
3.612000,-0.145239,-0.115413,-0.078748
3.632000,-0.144852,-0.113165,-0.078069
3.652000,-0.144081,-0.111007,-0.077283
3.672000,-0.142844,-0.108777,-0.076473
3.692000,-0.141436,-0.106577,-0.075746
3.712000,-0.140214,-0.104481,-0.075061
3.732000,-0.139122,-0.102489,-0.074335
3.752000,-0.137870,-0.100486,-0.073565
3.772000,-0.136157,-0.098462,-0.072807
3.792000,-0.134099,-0.096464,-0.072143
3.812000,-0.132036,-0.094576,-0.071633
3.832000,-0.130127,-0.092721,-0.071089
3.852000,-0.128397,-0.090944,-0.070533
3.872000,-0.126805,-0.089316,-0.069960
3.892000,-0.125387,-0.087698,-0.069251
3.912000,-0.124165,-0.086059,-0.068381
3.932000,-0.123095,-0.084418,-0.067463
3.952000,-0.122105,-0.082933,-0.066693
3.972000,-0.121281,-0.081537,-0.066054
3.992000,-0.120417,-0.080216,-0.065584
4.012000,-0.119374,-0.078841,-0.065031
4.039000,-0.118625,-0.077551,-0.064437
4.059000,-0.117933,-0.076313,-0.063867
4.079000,-0.117056,-0.075028,-0.063243
4.099000,-0.116095,-0.073781,-0.062654
4.119000,-0.115213,-0.072624,-0.062152
4.139000,-0.114357,-0.071465,-0.061688
4.159000,-0.113598,-0.070257,-0.061188
4.179000,-0.113213,-0.069044,-0.060654
4.199000,-0.113260,-0.067927,-0.060153
4.219000,-0.113397,-0.066836,-0.059685
4.239000,-0.113275,-0.065726,-0.059168
4.259000,-0.112818,-0.064592,-0.058656
4.279000,-0.112260,-0.063527,-0.058126
4.299000,-0.111767,-0.062506,-0.057629
4.319000,-0.111366,-0.061588,-0.057139
4.339000,-0.110913,-0.060683,-0.056627
4.359000,-0.110367,-0.059767,-0.056156
4.379000,-0.109799,-0.058898,-0.055725
4.399000,-0.109237,-0.058103,-0.055262
4.419000,-0.108384,-0.057291,-0.054757
4.439000,-0.107191,-0.056450,-0.054400
4.459000,-0.105979,-0.055633,-0.054209
4.479000,-0.104936,-0.054850,-0.054074
4.499000,-0.104131,-0.054064,-0.053814
4.519000,-0.103335,-0.053283,-0.053516
4.539000,-0.102197,-0.052495,-0.053179
4.559000,-0.100748,-0.051728,-0.052805
4.579000,-0.099033,-0.050967,-0.052418
4.599000,-0.097165,-0.050139,-0.052044
4.619000,-0.095603,-0.049331,-0.051674
4.639000,-0.094723,-0.048655,-0.051267
4.659000,-0.094465,-0.048053,-0.050850
4.679000,-0.094455,-0.047403,-0.050396
4.699000,-0.094477,-0.046757,-0.049955
4.719000,-0.094499,-0.046120,-0.049467
4.739000,-0.094499,-0.045473,-0.048985
4.759000,-0.094481,-0.044857,-0.048468
4.779000,-0.094336,-0.044243,-0.047971
4.799000,-0.093953,-0.043557,-0.047545
4.819000,-0.093493,-0.042856,-0.047176
4.839000,-0.093183,-0.042176,-0.046816
4.859000,-0.093028,-0.041493,-0.046467
4.879000,-0.092807,-0.040830,-0.046171
4.899000,-0.092366,-0.040130,-0.045876
4.919000,-0.091933,-0.039422,-0.045542
4.939000,-0.091550,-0.038770,-0.045267
4.959000,-0.091087,-0.038122,-0.045109
4.979000,-0.090685,-0.037492,-0.045061
4.999000,-0.090367,-0.036914,-0.045045
5.019000,-0.090021,-0.036353,-0.044933
5.039000,-0.089522,-0.035757,-0.044725
5.059000,-0.088823,-0.035151,-0.044485
5.079000,-0.087922,-0.034585,-0.044319
5.099000,-0.087006,-0.033972,-0.044248
5.119000,-0.086456,-0.033361,-0.044297
5.139000,-0.086478,-0.032892,-0.044516
5.159000,-0.086662,-0.032556,-0.044945
5.179000,-0.086651,-0.032177,-0.045327
5.199000,-0.086387,-0.031756,-0.045634
5.219000,-0.085938,-0.031309,-0.045793
5.239000,-0.085313,-0.030780,-0.045838
5.259000,-0.084667,-0.030215,-0.045806
5.279000,-0.084185,-0.029612,-0.045706
5.299000,-0.084247,-0.028975,-0.045443
5.319000,-0.084859,-0.028372,-0.045125
5.339000,-0.085459,-0.027832,-0.044751
5.359000,-0.085650,-0.027257,-0.044266
5.379000,-0.085448,-0.026647,-0.043755
5.399000,-0.085034,-0.026078,-0.043195
5.419000,-0.084497,-0.025499,-0.042590
5.439000,-0.083960,-0.024826,-0.041915
5.459000,-0.083748,-0.024234,-0.041199
5.479000,-0.083744,-0.023745,-0.040450
5.499000,-0.083476,-0.023202,-0.039763
5.519000,-0.082861,-0.022651,-0.039323
5.539000,-0.082180,-0.022162,-0.039033
5.559000,-0.081802,-0.021742,-0.038743
5.579000,-0.081809,-0.021344,-0.038353
5.599000,-0.082062,-0.020904,-0.037964
5.619000,-0.082279,-0.020483,-0.037662
5.639000,-0.082234,-0.020080,-0.037414
5.659000,-0.081907,-0.019658,-0.037205
5.679000,-0.081404,-0.019210,-0.037012
5.699000,-0.080891,-0.018748,-0.036939
5.719000,-0.080549,-0.018357,-0.037066
5.739000,-0.080495,-0.018020,-0.037193
5.759000,-0.080152,-0.017167,-0.037263
5.779000,-0.078305,-0.016656,-0.037576
5.799000,-0.075936,-0.016022,-0.037425
5.819000,-0.073907,-0.015588,-0.037625
5.839000,-0.072856,-0.015233,-0.037643
5.859000,-0.073159,-0.015111,-0.037718
5.879000,-0.074252,-0.015301,-0.037935
5.899000,-0.075397,-0.015324,-0.037778
5.919000,-0.076299,-0.015201,-0.037496
5.939000,-0.078139,-0.015679,-0.037139
5.959000,-0.080226,-0.015932,-0.036995
5.979000,-0.082066,-0.015864,-0.036813
5.999000,-0.083653,-0.015839,-0.036414
6.019000,-0.084219,-0.015467,-0.035557
6.051000,-0.083795,-0.014356,-0.036358
6.071000,-0.083896,-0.014006,-0.036585
6.091000,-0.083853,-0.013691,-0.036846
6.111000,-0.083266,-0.013387,-0.037164
6.131000,-0.081991,-0.012916,-0.037107
6.151000,-0.080249,-0.012473,-0.036673
6.171000,-0.078751,-0.012073,-0.036208
6.191000,-0.077616,-0.011807,-0.036275
6.211000,-0.076573,-0.011542,-0.036535
6.231000,-0.075695,-0.011072,-0.036527
6.251000,-0.074459,-0.010593,-0.036402
6.271000,-0.073011,-0.010146,-0.036339
6.291000,-0.071672,-0.009671,-0.036174
6.311000,-0.070610,-0.009023,-0.035662
6.331000,-0.069787,-0.008241,-0.035033
6.351000,-0.069036,-0.007501,-0.034201
6.371000,-0.068448,-0.006962,-0.033496
6.391000,-0.068223,-0.006807,-0.033553
6.411000,-0.068190,-0.006602,-0.033367
6.431000,-0.068367,-0.006156,-0.033041
6.451000,-0.068806,-0.005679,-0.032898
6.471000,-0.069169,-0.005246,-0.032755
6.491000,-0.069026,-0.004843,-0.032455
6.511000,-0.068767,-0.004604,-0.032200
6.531000,-0.068542,-0.004295,-0.031990
6.551000,-0.068368,-0.003927,-0.031792
6.571000,-0.068089,-0.003586,-0.031600
6.591000,-0.067524,-0.003257,-0.031420
6.611000,-0.067022,-0.002977,-0.031268
6.631000,-0.066913,-0.002714,-0.031054
6.651000,-0.067034,-0.002459,-0.030906
6.671000,-0.067063,-0.002155,-0.030753
6.691000,-0.066855,-0.001856,-0.030625
6.711000,-0.066509,-0.001631,-0.030616
6.731000,-0.066323,-0.001404,-0.030601
6.751000,-0.066229,-0.001098,-0.030438
6.771000,-0.066098,-0.000733,-0.030195
6.791000,-0.065916,-0.000446,-0.030063
6.811000,-0.065748,-0.000181,-0.030020
6.831000,-0.065548,0.000068,-0.030053
6.851000,-0.065209,0.000334,-0.030060
6.871000,-0.064722,0.000572,-0.030063
6.891000,-0.064027,0.000851,-0.029988
6.911000,-0.063246,0.001177,-0.029842
6.931000,-0.062649,0.001520,-0.029628
6.951000,-0.062422,0.001752,-0.029413
6.971000,-0.062342,0.001976,-0.029233
6.991000,-0.062179,0.002292,-0.029069
7.011000,-0.061934,0.002573,-0.028945
7.031000,-0.061602,0.002743,-0.028924
7.051000,-0.061136,0.002986,-0.028960
7.071000,-0.060261,0.003396,-0.028952
7.091000,-0.058936,0.003853,-0.029051
7.111000,-0.057805,0.004284,-0.029308
7.131000,-0.056814,0.004666,-0.029528
7.151000,-0.055766,0.005123,-0.029806
7.171000,-0.055002,0.005960,-0.029780
7.191000,-0.054556,0.006916,-0.028980
7.211000,-0.053600,0.007737,-0.028302
7.231000,-0.051538,0.008994,-0.027991
7.251000,-0.050170,0.010734,-0.027038
7.271000,-0.049170,0.012376,-0.025657
7.291000,-0.047205,0.013925,-0.024839
7.311000,-0.044986,0.015489,-0.023670
7.331000,-0.042699,0.017344,-0.022012
7.351000,-0.040062,0.019119,-0.020875
7.371000,-0.038473,0.020167,-0.020364
7.391000,-0.038201,0.020363,-0.020499
7.411000,-0.038925,0.019993,-0.021236
7.431000,-0.040580,0.019529,-0.022215
7.451000,-0.042964,0.019070,-0.022925
7.471000,-0.045179,0.018578,-0.023722
7.491000,-0.047084,0.018117,-0.024482
7.511000,-0.048501,0.017900,-0.024930
7.531000,-0.049957,0.017830,-0.024974
7.551000,-0.051252,0.017841,-0.024806
7.571000,-0.052194,0.017825,-0.024653
7.591000,-0.052676,0.017773,-0.024785
7.611000,-0.052760,0.017817,-0.024935
7.631000,-0.052700,0.018021,-0.024994
7.651000,-0.052836,0.018173,-0.024957
7.671000,-0.053132,0.018167,-0.024917
7.691000,-0.053457,0.018197,-0.024753
7.711000,-0.053702,0.018345,-0.024571
7.731000,-0.053841,0.018500,-0.024484
7.751000,-0.054140,0.018578,-0.024447
7.771000,-0.054678,0.018557,-0.024431
7.791000,-0.055176,0.018601,-0.024374
7.811000,-0.055660,0.018653,-0.024249
7.831000,-0.056071,0.018660,-0.024099
7.851000,-0.056229,0.018729,-0.023894
7.871000,-0.056074,0.018830,-0.023691
7.891000,-0.055925,0.018917,-0.023420
7.911000,-0.056053,0.019032,-0.023050
7.931000,-0.056361,0.019137,-0.022737
7.951000,-0.056685,0.019178,-0.022582
7.971000,-0.056999,0.019083,-0.022562
7.991000,-0.057147,0.019065,-0.022548
8.011000,-0.057191,0.019185,-0.022453
8.031000,-0.057311,0.019241,-0.022302
