accel_time_list,accel_x_list,accel_y_list,accel_z_list
0.315000,-0.344765,0.536301,6.349423
0.335000,-0.656011,0.404620,6.076484
0.355000,-1.036712,0.339862,5.870615
0.375000,-1.545625,0.239052,5.764466
0.395000,-2.104264,0.203978,5.629274
0.415000,-2.740898,0.189045,5.449188
0.435000,-3.411489,0.138137,5.239229
0.455000,-4.129618,0.049805,5.007105
0.475000,-4.975590,-0.090400,4.787080
0.495000,-5.986940,-0.283015,4.599253
0.515000,-7.126606,-0.528874,4.454865
0.535000,-8.299908,-0.853078,4.338754
0.555000,-9.360270,-1.241885,4.258689
0.575000,-10.178921,-1.661873,4.190378
0.595000,-10.710535,-2.054870,4.116781
0.615000,-11.027116,-2.409600,4.035630
0.635000,-11.249588,-2.737269,3.977471
0.655000,-11.397241,-3.010208,3.958406
0.675000,-11.432716,-3.227228,3.963933
0.695000,-11.357588,-3.421569,3.970437
0.715000,-11.207112,-3.596324,3.969392
0.735000,-11.024092,-3.742273,3.963697
0.755000,-10.840225,-3.867499,3.964429
0.775000,-10.648539,-3.976430,3.978951
0.795000,-10.448298,-4.072186,4.006283
0.815000,-10.246614,-4.150581,4.036006
0.835000,-10.044778,-4.207718,4.067893
0.855000,-9.850480,-4.253693,4.099689
0.875000,-9.677171,-4.297929,4.142704
0.895000,-9.549525,-4.335933,4.207771
0.915000,-9.461079,-4.345461,4.272525
0.935000,-9.399165,-4.331446,4.316652
0.955000,-9.357590,-4.331132,4.353146
0.975000,-9.341130,-4.365536,4.408295
0.995000,-9.370128,-4.407695,4.493620
1.015000,-9.444776,-4.424429,4.569380
1.035000,-9.547780,-4.444215,4.650534
1.055000,-9.657894,-4.488685,4.749452
1.075000,-9.782381,-4.519097,4.837296
1.095000,-9.911611,-4.520675,4.900446
1.115000,-9.998306,-4.517918,4.965061
1.135000,-10.053164,-4.554444,5.030743
1.155000,-10.097120,-4.589873,5.082985
1.175000,-10.126638,-4.586652,5.123424
1.195000,-10.127476,-4.549052,5.156618
1.215000,-10.104500,-4.506378,5.189476
1.235000,-10.060672,-4.466061,5.222882
1.255000,-9.982919,-4.415010,5.250556
1.275000,-9.863179,-4.355019,5.275756
1.295000,-9.710346,-4.301363,5.306138
1.315000,-9.536920,-4.270403,5.334131
1.335000,-9.341461,-4.240652,5.353836
1.355000,-9.123459,-4.199995,5.359228
1.375000,-8.877388,-4.150537,5.365034
1.395000,-8.588067,-4.086323,5.380861
1.415000,-8.252006,-4.007977,5.394872
1.435000,-7.893854,-3.930951,5.397831
1.455000,-7.536280,-3.863442,5.387475
1.475000,-7.167742,-3.790501,5.381362
1.495000,-6.784146,-3.722628,5.380997
1.515000,-6.349640,-3.663863,5.361618
1.535000,-5.853188,-3.600574,5.335731
1.555000,-5.337273,-3.524048,5.326742
1.575000,-4.824184,-3.447081,5.337095
1.595000,-4.316850,-3.417325,5.341339
1.615000,-3.725240,-3.438207,5.351923
1.635000,-2.969892,-3.467611,5.382478
1.655000,-2.344878,-3.464876,5.420209
1.675000,-2.235102,-3.390222,5.437444
1.695000,-2.329513,-3.264148,5.386391
1.715000,-2.014194,-3.101035,5.327440
1.735000,-1.100736,-2.948888,5.317961
1.755000,-0.309794,-2.930313,5.383082
1.775000,0.131509,-2.926692,5.522552
1.795000,0.852966,-2.848648,5.648805
1.815000,1.587135,-2.805575,5.695207
1.835000,1.969824,-2.810395,5.701098
1.855000,1.933523,-2.802547,5.712717
1.875000,1.805227,-2.759418,5.738648
1.895000,2.133005,-2.701588,5.762082
1.915000,2.656792,-2.652179,5.773299
1.935000,3.024785,-2.601281,5.763535
1.955000,3.295033,-2.539232,5.755993
1.975000,3.428524,-2.519166,5.762745
1.995000,3.470682,-2.515564,5.777586
2.015000,3.613181,-2.494533,5.786388
2.035000,3.808228,-2.454580,5.778239
2.055000,3.940709,-2.402962,5.746877
2.075000,3.976879,-2.337223,5.693535
2.095000,3.941021,-2.250015,5.634551
2.115000,3.859660,-2.150721,5.585737
2.135000,3.741763,-2.055977,5.531572
2.155000,3.481212,-2.010379,5.449206
2.175000,3.153100,-1.994824,5.270721
2.195000,2.839589,-1.990828,4.954973
2.215000,1.357227,-2.196883,6.964276
2.235000,-3.902716,-2.916272,-0.290204
2.255000,-1.271991,-1.298450,-19.538458
2.275000,-0.101908,1.077404,1.085255
2.295000,-1.285027,-0.347803,18.549631
2.497000,-0.501850,-0.168678,14.883634
2.517000,-0.251763,-0.650455,13.375398
2.537000,0.084964,-1.462442,11.910412
2.557000,0.307254,-2.101945,11.067165
2.577000,0.185419,-2.338176,10.644884
2.597000,0.078731,-2.658147,10.150925
2.617000,0.103122,-3.300238,9.434320
2.637000,0.077105,-4.111518,8.819170
2.657000,0.172531,-4.601995,8.613687
2.677000,0.213486,-4.660099,8.660993
2.697000,0.299893,-4.691315,8.688353
2.717000,0.360312,-4.786154,8.677176
2.737000,0.375851,-4.952531,8.648740
2.757000,0.425367,-5.057287,8.635445
2.777000,0.437605,-5.087618,8.662137
2.797000,0.458904,-5.114934,8.689036
2.817000,0.474669,-5.161524,8.713834
2.837000,0.483583,-5.223519,8.707716
2.857000,0.505180,-5.327382,8.672425
2.877000,0.526556,-5.417464,8.644478
2.897000,0.537610,-5.450234,8.645638
2.917000,0.536972,-5.470345,8.647388
2.937000,0.549217,-5.538196,8.629635
2.957000,0.580469,-5.594326,8.612656
2.977000,0.597299,-5.613582,8.614685
2.997000,0.604579,-5.597203,8.634526
3.017000,0.597700,-5.591085,8.654025
3.037000,0.602755,-5.618387,8.656551
3.057000,0.619632,-5.638380,8.654010
3.077000,0.626122,-5.640894,8.662439
3.097000,0.630693,-5.635695,8.672625
3.117000,0.630663,-5.659372,8.668821
3.137000,0.642094,-5.714024,8.651100
3.157000,0.652860,-5.744146,8.643118
3.177000,0.655314,-5.744360,8.650994
3.197000,0.653091,-5.741392,8.661498
3.217000,0.649420,-5.752552,8.665984
3.237000,0.652086,-5.772516,8.663773
3.257000,0.656527,-5.788068,8.661483
3.277000,0.659189,-5.797437,8.660924
3.297000,0.658318,-5.812056,8.660769
3.317000,0.657598,-5.834897,8.657203
3.337000,0.657671,-5.850732,8.655777
3.357000,0.656360,-5.857748,8.657855
3.377000,0.653286,-5.866651,8.660121
3.397000,0.653853,-5.883022,8.657499
3.417000,0.654846,-5.893806,8.656137
3.437000,0.654137,-5.894163,8.660053
3.457000,0.651826,-5.889193,8.666362
3.477000,0.650920,-5.885791,8.672060
3.497000,0.650880,-5.898031,8.671452
3.517000,0.653920,-5.907038,8.669341
3.537000,0.651644,-5.909130,8.674125
3.557000,0.652643,-5.910583,8.677828
3.577000,0.653262,-5.907641,8.682000
3.597000,0.653438,-5.906312,8.685746
3.617000,0.653482,-5.905937,8.689178
3.637000,0.651403,-5.910087,8.691958
3.657000,0.650838,-5.915277,8.693683
3.677000,0.650251,-5.916461,8.696246
3.697000,0.649567,-5.916719,8.699144
3.717000,0.648406,-5.917358,8.701988
3.737000,0.648601,-5.922280,8.703433
3.757000,0.647973,-5.928807,8.703786
3.777000,0.648096,-5.931653,8.704365
3.797000,0.647170,-5.932774,8.706481
3.817000,0.647017,-5.934541,8.707766
3.837000,0.647289,-5.937120,8.708482
3.857000,0.647311,-5.939815,8.709771
3.877000,0.646516,-5.942735,8.710985
3.897000,0.646549,-5.945189,8.711802
3.917000,0.645686,-5.946750,8.713593
3.937000,0.643671,-5.944697,8.716492
3.957000,0.641804,-5.943067,8.719798
3.977000,0.641132,-5.944881,8.720927
3.997000,0.641359,-5.948901,8.721315
4.017000,0.641083,-5.950166,8.721959
4.037000,0.639802,-5.950364,8.723507
4.057000,0.638976,-5.950285,8.725698
4.077000,0.637930,-5.952482,8.726581
4.097000,0.638124,-5.954424,8.727092
4.117000,0.637113,-5.954032,8.729030
4.137000,0.636560,-5.952395,8.731198
4.157000,0.635877,-5.953312,8.732520
4.177000,0.635323,-5.955493,8.732872
4.197000,0.634726,-5.956565,8.734052
4.217000,0.633700,-5.955586,8.735705
4.237000,0.632942,-5.954480,8.737760
4.257000,0.631903,-5.955138,8.739421
4.277000,0.631798,-5.956372,8.740330
4.297000,0.631483,-5.957050,8.741670
4.317000,0.630624,-5.956786,8.743092
4.337000,0.629965,-5.956443,8.744455
4.357000,0.628908,-5.956701,8.745461
4.377000,0.628738,-5.957401,8.746498
4.397000,0.628824,-5.958250,8.747245
4.417000,0.628484,-5.958643,8.748188
4.437000,0.627386,-5.958568,8.749927
4.457000,0.626382,-5.958949,8.751135
4.477000,0.625325,-5.958528,8.752680
4.509000,0.625081,-5.958221,8.753759
4.529000,0.624193,-5.958309,8.755095
4.549000,0.623123,-5.959907,8.755552
4.569000,0.623164,-5.961397,8.755876
4.589000,0.622727,-5.961927,8.756906
4.609000,0.621934,-5.961823,8.758013
4.629000,0.621293,-5.960169,8.759871
4.649000,0.620755,-5.960379,8.760787
4.669000,0.620892,-5.961310,8.761214
4.689000,0.620501,-5.962488,8.761684
4.709000,0.620185,-5.962215,8.762820
4.729000,0.619395,-5.961491,8.764280
4.749000,0.618731,-5.961946,8.765367
4.769000,0.618362,-5.962996,8.765436
4.789000,0.617805,-5.963580,8.765841
4.809000,0.617181,-5.962386,8.767509
4.829000,0.616803,-5.961349,8.769138
4.849000,0.616453,-5.962715,8.769410
4.869000,0.616154,-5.964643,8.769272
4.889000,0.615691,-5.964708,8.770117
4.909000,0.614442,-5.963408,8.771887
4.929000,0.613972,-5.963078,8.773017
4.949000,0.613890,-5.964116,8.773585
4.969000,0.613712,-5.964905,8.774004
4.989000,0.613297,-5.964656,8.775232
5.009000,0.612695,-5.964026,8.776424
5.029000,0.611931,-5.964289,8.777126
5.049000,0.611390,-5.964549,8.777557
5.069000,0.611358,-5.965213,8.778200
5.089000,0.611253,-5.965775,8.779028
5.109000,0.610648,-5.965422,8.779943
5.129000,0.610287,-5.964402,8.781351
5.149000,0.609308,-5.964230,8.782243
5.169000,0.609200,-5.964969,8.782671
5.189000,0.608447,-5.964695,8.783813
5.209000,0.608348,-5.964520,8.784632
5.229000,0.608107,-5.963892,8.785682
5.249000,0.608107,-5.963510,8.786746
5.269000,0.608203,-5.963610,8.787536
5.289000,0.608322,-5.963973,8.788246
5.309000,0.608152,-5.963422,8.789332
5.329000,0.608009,-5.963212,8.790264
5.349000,0.607794,-5.963722,8.790852
5.369000,0.607893,-5.964036,8.791409
5.389000,0.607584,-5.964059,8.792080
5.409000,0.607805,-5.963675,8.793247
5.429000,0.607689,-5.963749,8.793924
5.449000,0.607789,-5.964039,8.794259
5.469000,0.607936,-5.964469,8.795213
5.489000,0.607770,-5.963889,8.796349
5.509000,0.607582,-5.963531,8.797593
5.529000,0.607899,-5.964349,8.798179
5.549000,0.608021,-5.964776,8.798687
5.569000,0.607543,-5.964361,8.799213
5.589000,0.607956,-5.964931,8.799615
5.609000,0.608173,-5.964778,8.800323
5.629000,0.607790,-5.964458,8.801217
5.649000,0.607865,-5.963328,8.801240
5.669000,0.608251,-5.964723,8.802029
5.689000,0.608680,-5.964811,8.802091
5.709000,0.608723,-5.956304,8.805887
5.729000,0.607735,-5.953124,8.810915
5.749000,0.609535,-5.966568,8.807130
5.769000,0.612609,-5.975568,8.800653
5.789000,0.612924,-5.976361,8.801327
5.809000,0.611870,-5.967474,8.807334
5.829000,0.611306,-5.971941,8.807247
5.849000,0.612040,-5.972291,8.804768
5.869000,0.613653,-5.963829,8.812416
5.889000,0.615178,-5.967397,8.814960
5.909000,0.614844,-5.976676,8.812020
5.929000,0.614466,-5.980883,8.810810
5.949000,0.613780,-5.975303,8.816579
5.969000,0.612215,-5.970569,8.821452
5.989000,0.609732,-5.966097,8.827497
6.009000,0.609812,-5.958678,8.835182
6.029000,0.611567,-5.950614,8.845735
6.049000,0.614717,-5.942463,8.855081
6.069000,0.617619,-5.928122,8.867900
6.089000,0.621403,-5.907124,8.881885
6.109000,0.623305,-5.886623,8.896184
6.129000,0.620352,-5.866974,8.913716
6.149000,0.618267,-5.841631,8.933276
6.169000,0.622595,-5.815010,8.950557
6.189000,0.625036,-5.796987,8.969628
6.209000,0.627500,-5.783166,8.991741
6.229000,0.636069,-5.760936,9.006139
6.249000,0.641177,-5.720015,9.014120
6.269000,0.638811,-5.668537,9.021088
6.289000,0.627036,-5.622266,9.027244
6.309000,0.602953,-5.576554,9.030992
6.329000,0.572934,-5.521339,9.036139
6.349000,0.540868,-5.464579,9.047771
6.369000,0.503712,-5.409905,9.061512
6.389000,0.468939,-5.340540,9.070280
6.409000,0.443564,-5.253866,9.084443
6.429000,0.428905,-5.189267,9.131864
6.449000,0.431727,-5.154685,9.182402
6.469000,0.463394,-5.073801,9.194486
6.489000,0.511936,-4.946101,9.190241
6.526000,0.499897,-4.892242,9.205215
6.546000,0.471004,-4.897239,9.238978
6.566000,0.466533,-4.920690,9.246092
6.586000,0.495028,-4.915781,9.224475
6.606000,0.506956,-4.894113,9.236138
6.626000,0.497434,-4.852998,9.275530
6.646000,0.503473,-4.785226,9.291160
6.666000,0.519770,-4.721195,9.302491
6.686000,0.518212,-4.675381,9.327117
6.706000,0.524139,-4.650699,9.338138
6.726000,0.539440,-4.652058,9.337125
6.746000,0.539959,-4.636634,9.344693
6.766000,0.546099,-4.611067,9.355322
6.786000,0.567477,-4.611070,9.361176
6.806000,0.581531,-4.626862,9.362829
6.826000,0.589889,-4.628592,9.369518
6.846000,0.600223,-4.624702,9.375255
6.866000,0.614715,-4.607944,9.375235
6.886000,0.626644,-4.592659,9.387234
6.906000,0.628853,-4.595401,9.398826
6.926000,0.635805,-4.573727,9.406495
6.946000,0.648911,-4.532179,9.415309
6.966000,0.660546,-4.512237,9.425519
6.986000,0.666319,-4.523543,9.431581
7.006000,0.674596,-4.528506,9.434948
7.026000,0.688272,-4.518250,9.441466
7.046000,0.699059,-4.519572,9.445980
7.066000,0.711365,-4.510378,9.451119
7.086000,0.725392,-4.496970,9.458793
7.106000,0.734323,-4.485560,9.467084
7.126000,0.735120,-4.474046,9.475819
7.146000,0.741105,-4.454083,9.486549
7.166000,0.761706,-4.425064,9.487931
7.186000,0.775206,-4.402155,9.492244
7.206000,0.783040,-4.386071,9.502283
7.226000,0.789790,-4.361695,9.514928
7.246000,0.797957,-4.336977,9.524429
7.266000,0.807288,-4.321725,9.529646
7.286000,0.812982,-4.308435,9.538641
7.306000,0.818619,-4.285627,9.552622
7.326000,0.829035,-4.265031,9.560884
7.346000,0.841910,-4.248244,9.564444
7.366000,0.850418,-4.227978,9.572062
7.386000,0.857763,-4.203536,9.583553
7.406000,0.865610,-4.178818,9.591147
7.426000,0.877041,-4.163617,9.595265
7.446000,0.885820,-4.152519,9.604155
7.466000,0.892979,-4.136609,9.615230
7.486000,0.902676,-4.118290,9.621309
7.506000,0.910505,-4.093246,9.627448
7.526000,0.916722,-4.067529,9.639319
7.546000,0.922232,-4.051060,9.651144
7.566000,0.929769,-4.041408,9.657559
7.586000,0.940127,-4.026715,9.661660
7.606000,0.947055,-4.007058,9.670412
7.626000,0.951973,-3.989700,9.681519
7.646000,0.957968,-3.976226,9.690048
7.666000,0.967590,-3.962389,9.695476
7.686000,0.977834,-3.945622,9.701543
7.706000,0.984551,-3.928172,9.708244
7.726000,0.989646,-3.916635,9.715645
7.746000,0.997562,-3.906721,9.720721
7.766000,1.004202,-3.891924,9.727279
7.786000,1.012069,-3.880507,9.735087
7.806000,1.018253,-3.866271,9.743154
7.826000,1.027918,-3.852848,9.748457
7.846000,1.033704,-3.840327,9.753732
7.866000,1.043694,-3.830646,9.760078
7.886000,1.051165,-3.819847,9.767104
7.906000,1.060526,-3.809746,9.772073
7.926000,1.064214,-3.795493,9.777255
7.946000,1.073228,-3.788849,9.782481
7.966000,1.080213,-3.780201,9.789738
7.986000,1.087319,-3.767454,9.795749
8.006000,1.095839,-3.760193,9.798395
8.026000,1.104010,-3.749269,9.802979
8.046000,1.107072,-3.737094,9.811179
8.066000,1.112641,-3.727247,9.818627
8.086000,1.119304,-3.722929,9.822721
8.106000,1.125636,-3.711191,9.829911
8.126000,1.131355,-3.697556,9.836909
8.146000,1.138524,-3.687767,9.841659
8.166000,1.145958,-3.681047,9.847486
8.186000,1.148696,-3.669497,9.854619
8.206000,1.152196,-3.659214,9.860005
8.226000,1.158751,-3.651359,9.866559
8.246000,1.164258,-3.641648,9.872616
8.266000,1.170165,-3.629750,9.877391
8.286000,1.176826,-3.622569,9.881831
8.306000,1.181578,-3.616260,9.887759
8.326000,1.187073,-3.606735,9.893149
8.346000,1.191530,-3.596083,9.897408
8.366000,1.196326,-3.589662,9.903180
8.386000,1.200979,-3.582639,9.910235
8.406000,1.206375,-3.571555,9.914993
8.426000,1.211047,-3.563206,9.918985
8.446000,1.217084,-3.557445,9.925261
8.466000,1.221673,-3.548002,9.930563
8.486000,1.226216,-3.537830,9.934950
8.506000,1.228750,-3.531684,9.940299
