gyro_time_list,gyro_x_list,gyro_y_list,gyro_z_list
0.412,-0.076475,-0.030243,0.551977
0.432,-0.250075,-0.020518,0.423675
0.452,-0.428214,-0.012787,0.303946
0.472,-0.573252,-0.011188,0.203069
0.492,-0.671799,-0.012549,0.126779
0.512,-0.732138,-0.0151,0.072046
0.532,-0.764879,-0.018657,0.033581
0.552,-0.773912,-0.021792,0.008889
0.572,-0.765739,-0.02352,-0.005543
0.592,-0.749165,-0.02434,-0.009038
0.612,-0.733572,-0.024199,-0.003836
0.632,-0.725728,-0.023913,0.004671
0.652,-0.72429,-0.024771,0.014506
0.672,-0.724681,-0.025935,0.026187
0.692,-0.723898,-0.024763,0.035802
0.712,-0.715586,-0.020998,0.042438
0.732,-0.696912,-0.015073,0.045639
0.752,-0.672496,-0.007946,0.045673
0.772,-0.647018,0.000007635914,0.044208
0.792,-0.621312,0.008432,0.042176
0.812,-0.594074,0.016519,0.041412
0.832,-0.566223,0.023621,0.042639
0.852,-0.540097,0.029663,0.04552
0.872,-0.516546,0.034452,0.050233
0.892,-0.497628,0.038322,0.056225
0.912,-0.485216,0.04106,0.062641
0.932,-0.477945,0.04294,0.069862
0.952,-0.472183,0.044296,0.078054
0.972,-0.464905,0.045073,0.087187
0.992,-0.453647,0.046622,0.097968
1.012,-0.437435,0.04934,0.110562
1.032,-0.417069,0.052996,0.124821
1.052,-0.396022,0.057192,0.140785
1.072,-0.378453,0.062101,0.157924
1.092,-0.367066,0.06769,0.175712
1.112,-0.362789,0.07352,0.193843
1.132,-0.365209,0.078951,0.212927
1.152,-0.374135,0.084639,0.232114
1.172,-0.38723,0.091258,0.25028
1.192,-0.39981,0.098897,0.267525
1.212,-0.408558,0.107302,0.283647
1.232,-0.412851,0.116209,0.297743
1.252,-0.411956,0.125359,0.309828
1.272,-0.404966,0.134181,0.320322
1.292,-0.392434,0.142161,0.329517
1.312,-0.376537,0.149279,0.33764
1.332,-0.360203,0.155124,0.344395
1.352,-0.345852,0.15985,0.349693
1.372,-0.334854,0.163249,0.353427
1.392,-0.326115,0.165385,0.355344
1.412,-0.316403,0.167383,0.356179
1.432,-0.303467,0.169168,0.355693
1.452,-0.28629,0.170224,0.354166
1.472,-0.264385,0.169897,0.351128
1.492,-0.237788,0.168696,0.347007
1.512,-0.208788,0.166936,0.342158
1.532,-0.18122,0.164937,0.335352
1.552,-0.158225,0.162405,0.328175
1.572,-0.141687,0.158484,0.320185
1.592,-0.124528,0.154048,0.312669
1.612,-0.100357,0.151028,0.30325
1.632,-0.069269,0.149018,0.290839
1.652,-0.036342,0.146035,0.277212
1.672,-0.00662,0.141263,0.260714
1.692,0.019348,0.135027,0.239931
1.712,0.038283,0.126058,0.214093
1.732,0.042816,0.112379,0.184768
1.752,0.033378,0.092668,0.154189
1.772,0.018835,0.066962,0.119352
1.792,0.005411,0.03448,0.08308
1.812,-0.005019,-0.006439,0.044921
1.832,-0.00818,-0.056351,0.004936
1.852,-0.005141,-0.112637,-0.036416
1.872,-0.006674,-0.174599,-0.07765
1.892,-0.012806,-0.239859,-0.115541
1.912,-0.013095,-0.296895,-0.151348
1.932,-0.015466,-0.337081,-0.182201
1.952,-0.063845,-0.352212,-0.207855
1.972,-0.16297,-0.31088,-0.21272
1.992,-0.197388,-0.201895,-0.191419
2.012,-0.308116,-0.319358,-0.303425
2.032,-0.168427,-0.458535,-0.426058
2.052,-0.013476,-0.596403,-0.550581
2.072,0.01254,-0.696684,-0.610023
2.092,-0.153784,-0.738262,-0.734422
2.112,-0.307176,-0.697404,-0.843083
2.132,-0.390902,-0.709217,-0.991757
2.152,-0.391548,-0.750646,-1.131192
2.172,-0.407213,-0.789185,-1.229923
2.192,-0.428845,-0.84792,-1.28771
2.212,-0.484803,-0.911218,-1.338786
2.232,-0.48913,-0.920315,-1.377549
2.252,-0.308018,-0.911979,-1.316123
2.272,-0.107271,-0.927308,-1.225188
2.292,-0.106968,-0.9512,-1.11693
2.312,-0.190245,-0.97153,-1.023476
2.332,-0.192665,-0.990095,-0.967051
2.352,-0.079982,-0.999869,-0.908374
2.372,0.106581,-0.987945,-0.842585
2.392,0.32764,-0.951041,-0.757868
2.54,0.292538,-0.929161,-0.722857
2.56,0.199987,-0.906431,-0.687343
2.58,0.092995,-0.882913,-0.637649
2.6,0.035455,-0.859448,-0.583109
2.62,-0.005098,-0.836823,-0.546131
2.64,-0.023671,-0.813757,-0.512787
2.66,0.002102,-0.790691,-0.476235
2.68,0.046829,-0.766025,-0.441677
2.7,0.080093,-0.743702,-0.414644
2.72,0.094499,-0.722364,-0.400013
2.74,0.088559,-0.699476,-0.384422
2.76,0.070554,-0.679803,-0.365223
2.78,0.046416,-0.660727,-0.349496
2.8,0.018925,-0.640995,-0.338864
2.82,-0.007619,-0.621791,-0.328703
2.84,-0.025225,-0.60539,-0.318027
2.86,-0.021139,-0.58893,-0.308097
2.88,0.002669,-0.571052,-0.298395
2.9,0.027664,-0.55222,-0.289206
2.92,0.033683,-0.535012,-0.280259
2.94,0.016516,-0.520548,-0.27339
2.96,-0.010418,-0.507219,-0.268626
2.98,-0.03414,-0.49503,-0.264766
3,-0.051159,-0.482519,-0.261843
3.02,-0.063627,-0.469696,-0.259133
3.04,-0.073867,-0.456964,-0.255968
3.06,-0.080276,-0.444797,-0.251236
3.08,-0.078477,-0.432289,-0.245415
3.1,-0.068788,-0.419135,-0.238779
3.12,-0.057508,-0.406143,-0.232299
3.14,-0.050732,-0.393545,-0.226801
3.16,-0.051622,-0.381852,-0.22166
3.18,-0.059197,-0.371758,-0.217078
3.2,-0.068506,-0.362647,-0.212987
3.22,-0.07485,-0.354062,-0.209502
3.24,-0.077157,-0.345551,-0.20581
3.26,-0.078457,-0.337272,-0.201142
3.28,-0.079497,-0.329355,-0.196087
3.3,-0.078784,-0.321553,-0.19152
3.32,-0.076084,-0.313981,-0.187578
3.34,-0.073074,-0.306572,-0.184311
3.36,-0.071652,-0.299613,-0.181266
3.38,-0.072819,-0.293015,-0.17806
3.4,-0.075066,-0.286602,-0.174908
3.42,-0.076264,-0.280482,-0.171757
3.44,-0.075562,-0.274355,-0.168886
3.46,-0.073853,-0.268206,-0.166089
3.48,-0.072813,-0.262342,-0.163257
3.5,-0.072297,-0.256823,-0.160737
3.52,-0.07121,-0.251515,-0.158418
3.54,-0.069803,-0.246269,-0.156125
3.56,-0.069213,-0.241124,-0.153738
3.58,-0.069967,-0.236085,-0.151235
3.6,-0.071325,-0.231102,-0.148779
3.62,-0.072241,-0.22631,-0.146543
3.64,-0.072245,-0.221695,-0.144619
3.66,-0.072178,-0.217092,-0.142586
3.68,-0.072961,-0.212667,-0.140523
3.7,-0.07369,-0.208498,-0.138577
3.72,-0.073179,-0.204518,-0.136727
3.74,-0.072033,-0.200504,-0.13487
3.76,-0.071288,-0.196597,-0.132958
3.78,-0.071189,-0.192828,-0.131047
3.8,-0.07122,-0.18918,-0.129234
3.82,-0.071094,-0.185739,-0.127478
3.84,-0.07075,-0.182389,-0.12586
3.86,-0.070127,-0.179081,-0.124341
3.88,-0.069711,-0.175826,-0.122792
3.9,-0.069643,-0.172676,-0.121347
3.92,-0.069695,-0.169613,-0.119865
3.94,-0.069528,-0.166654,-0.118335
3.96,-0.068692,-0.163784,-0.116897
3.98,-0.067263,-0.160789,-0.1155
4,-0.066184,-0.157825,-0.114058
4.02,-0.065792,-0.15504,-0.112665
4.04,-0.065378,-0.152305,-0.111419
4.06,-0.064656,-0.149547,-0.110142
4.08,-0.064442,-0.146925,-0.108721
4.1,-0.064849,-0.144544,-0.1074
4.12,-0.065049,-0.142166,-0.106173
4.14,-0.064727,-0.139744,-0.105039
4.16,-0.064558,-0.137368,-0.103863
4.18,-0.064882,-0.135133,-0.102729
4.2,-0.065127,-0.132933,-0.101732
4.22,-0.064726,-0.130699,-0.100861
4.24,-0.064006,-0.128486,-0.099943
4.26,-0.06374,-0.12637,-0.09897
4.28,-0.064084,-0.124416,-0.097999
4.3,-0.064619,-0.122618,-0.097076
4.32,-0.064718,-0.120824,-0.096253
4.34,-0.064367,-0.118997,-0.095386
4.36,-0.063897,-0.117264,-0.094419
4.38,-0.063139,-0.115539,-0.093488
4.4,-0.061922,-0.113818,-0.092632
4.42,-0.060714,-0.112022,-0.091818
4.44,-0.060435,-0.110293,-0.09086
4.46,-0.061055,-0.108675,-0.089884
4.48,-0.06158,-0.107084,-0.089059
4.5,-0.061349,-0.105499,-0.08837
4.52,-0.060775,-0.103871,-0.087663
4.642,-0.060836,-0.102294,-0.08683
4.662,-0.061004,-0.100768,-0.086083
4.682,-0.06061,-0.099246,-0.085395
4.702,-0.059736,-0.097636,-0.084707
4.722,-0.05927,-0.096064,-0.083886
4.742,-0.059356,-0.094614,-0.08314
4.762,-0.059409,-0.093224,-0.082563
4.782,-0.059291,-0.091839,-0.082023
4.802,-0.059509,-0.09052,-0.081342
4.822,-0.059936,-0.089233,-0.080623
4.842,-0.060111,-0.087965,-0.079898
4.862,-0.05997,-0.0867,-0.079244
4.882,-0.059966,-0.085457,-0.078606
4.902,-0.060307,-0.08424,-0.077985
4.922,-0.060747,-0.083068,-0.077408
4.942,-0.061034,-0.081925,-0.076918
4.962,-0.061023,-0.080794,-0.076408
4.982,-0.060709,-0.079635,-0.075839
5.002,-0.060268,-0.078492,-0.075203
5.022,-0.059982,-0.077414,-0.074536
5.042,-0.060075,-0.076345,-0.073847
5.062,-0.060338,-0.075277,-0.073215
5.082,-0.060289,-0.074269,-0.072675
5.102,-0.059934,-0.073245,-0.072172
5.122,-0.05971,-0.07224,-0.071717
5.142,-0.059795,-0.071274,-0.071135
5.162,-0.059962,-0.070331,-0.070485
5.182,-0.059714,-0.069443,-0.069954
5.202,-0.058912,-0.068532,-0.069546
5.222,-0.057952,-0.067588,-0.069151
5.242,-0.057308,-0.06666,-0.068608
5.262,-0.057175,-0.065774,-0.067995
5.282,-0.057041,-0.064902,-0.067491
5.302,-0.056598,-0.063985,-0.067021
5.322,-0.056096,-0.063072,-0.06652
5.342,-0.05584,-0.062151,-0.066011
5.362,-0.055889,-0.061248,-0.065561
5.382,-0.05631,-0.060438,-0.065104
5.402,-0.056987,-0.059663,-0.064706
5.422,-0.057769,-0.058923,-0.064366
5.442,-0.058615,-0.058236,-0.064003
5.462,-0.059573,-0.057578,-0.063751
5.482,-0.060501,-0.056836,-0.063758
5.502,-0.061412,-0.055921,-0.063839
5.522,-0.062345,-0.054869,-0.063898
5.542,-0.063115,-0.053634,-0.063918
5.562,-0.063337,-0.052233,-0.063786
5.582,-0.062738,-0.05073,-0.063664
5.602,-0.06172,-0.049254,-0.063577
5.622,-0.061039,-0.047908,-0.06349
5.642,-0.061104,-0.046762,-0.063426
5.662,-0.062061,-0.0459,-0.06327
5.682,-0.063793,-0.045172,-0.062884
5.702,-0.065976,-0.044414,-0.062392
5.722,-0.068283,-0.04363,-0.06178
5.742,-0.070621,-0.04292,-0.061058
5.762,-0.07208,-0.042115,-0.060558
5.782,-0.072078,-0.041243,-0.060274
5.802,-0.071559,-0.040378,-0.060047
5.822,-0.071713,-0.039617,-0.059626
5.842,-0.072363,-0.038841,-0.05925
5.862,-0.072519,-0.038008,-0.059105
5.882,-0.072294,-0.037277,-0.05889
5.902,-0.072135,-0.036491,-0.058565
5.922,-0.071972,-0.03562,-0.058253
5.942,-0.072006,-0.034724,-0.057945
5.962,-0.072591,-0.033889,-0.057546
5.982,-0.073337,-0.03302,-0.057134
6.002,-0.073507,-0.031904,-0.057086
6.022,-0.073214,-0.030688,-0.057202
6.042,-0.072944,-0.029397,-0.057188
6.062,-0.072284,-0.02809,-0.057126
6.082,-0.069771,-0.026794,-0.05725
6.102,-0.065334,-0.025398,-0.057496
6.122,-0.061689,-0.024159,-0.057405
6.142,-0.060531,-0.02323,-0.056945
6.162,-0.061526,-0.022578,-0.056357
6.182,-0.064253,-0.022173,-0.055766
6.202,-0.067216,-0.021787,-0.055131
6.222,-0.068963,-0.02146,-0.054799
6.242,-0.069375,-0.021059,-0.054687
6.262,-0.069052,-0.020608,-0.054342
6.282,-0.069954,-0.020284,-0.052419
6.302,-0.072192,-0.020097,-0.050731
6.322,-0.075755,-0.019889,-0.0498
6.342,-0.07836,-0.019662,-0.048687
6.362,-0.079068,-0.019233,-0.047967
6.382,-0.07737,-0.018756,-0.047521
6.402,-0.075086,-0.018484,-0.047718
6.422,-0.072875,-0.018131,-0.047597
6.442,-0.069643,-0.017655,-0.047346
6.462,-0.065838,-0.017333,-0.047261
6.482,-0.061552,-0.016776,-0.047098
6.502,-0.057651,-0.016169,-0.046992
6.522,-0.055049,-0.015592,-0.047082
6.542,-0.053647,-0.015205,-0.046936
6.562,-0.053007,-0.014928,-0.046666
6.582,-0.05232,-0.014619,-0.046336
6.602,-0.051469,-0.014237,-0.046076
6.622,-0.050689,-0.013841,-0.045873
