gyro_time_list,gyro_x_list,gyro_y_list,gyro_z_list
0.420000,-2.450522,-0.552643,0.701995
0.440000,-1.870767,-0.464377,0.678480
0.460000,-1.258548,-0.369156,0.696817
0.480000,-0.684563,-0.276456,0.735258
0.500000,-0.206060,-0.190872,0.782948
0.520000,0.139646,-0.124927,0.839385
0.540000,0.346823,-0.082123,0.907318
0.560000,0.431206,-0.055703,0.979911
0.580000,0.399534,-0.039063,1.039367
0.600000,0.294989,-0.031336,1.081549
0.620000,0.179463,-0.029603,1.104625
0.640000,0.102231,-0.026870,1.111087
0.660000,0.077666,-0.021757,1.106204
0.680000,0.092949,-0.012698,1.093054
0.700000,0.129130,-0.001902,1.071437
0.720000,0.169379,0.006451,1.049510
0.740000,0.191934,0.011923,1.030934
0.760000,0.174587,0.015427,1.010682
0.780000,0.121265,0.014454,0.989360
0.800000,0.051965,0.009319,0.970630
0.820000,-0.029616,0.005300,0.952712
0.840000,-0.124766,0.004215,0.934508
0.860000,-0.214195,0.002764,0.912201
0.880000,-0.275319,-0.000656,0.880880
0.900000,-0.293968,-0.005302,0.842692
0.920000,-0.269118,-0.009226,0.803301
0.940000,-0.214566,-0.010836,0.760917
0.960000,-0.132644,-0.012665,0.716292
0.980000,-0.026147,-0.013099,0.674786
1.000000,0.067489,-0.010454,0.631579
1.020000,0.132956,0.000077,0.581902
1.040000,0.177474,0.023712,0.528125
1.060000,0.161489,-0.078857,0.420020
1.080000,-0.055718,-0.195269,0.212656
1.100000,0.002663,-0.275286,-0.011728
1.120000,0.231379,-0.235191,-0.249621
1.140000,0.296133,-0.198723,-0.477417
1.160000,0.274963,-0.143646,-0.619811
1.180000,0.415081,-0.096628,-0.657336
1.200000,0.535515,-0.099042,-0.678423
1.220000,0.611765,-0.138300,-0.723861
1.240000,0.650242,-0.183259,-0.789460
1.260000,0.582140,-0.224450,-0.826467
1.280000,0.372457,-0.289739,-0.906807
1.300000,0.182134,-0.376337,-1.063601
1.320000,0.240787,-0.453198,-1.133756
1.340000,0.326460,-0.533824,-1.199993
1.360000,0.341851,-0.613911,-1.301955
1.380000,0.369768,-0.688341,-1.419648
1.400000,0.429257,-0.752905,-1.510056
1.420000,0.479111,-0.817358,-1.589360
1.440000,0.480191,-0.896739,-1.673825
1.460000,0.386735,-0.997009,-1.732758
1.480000,0.243306,-1.119163,-1.760047
1.500000,0.186348,-1.201746,-1.746377
1.520000,0.304539,-1.183447,-1.740661
1.540000,0.515374,-1.094926,-1.749294
1.560000,0.667695,-0.985093,-1.720564
1.580000,0.578797,-0.905627,-1.633951
1.600000,0.422682,-0.849119,-1.539661
1.620000,0.261639,-0.804354,-1.465090
1.640000,0.136690,-0.776225,-1.406383
1.660000,0.122469,-0.738978,-1.361981
1.680000,0.221088,-0.682214,-1.311941
1.700000,0.373330,-0.627904,-1.256580
1.720000,0.469383,-0.577298,-1.192833
1.740000,0.474160,-0.525553,-1.115273
1.760000,0.418291,-0.486077,-1.041088
1.780000,0.295159,-0.475815,-0.991614
1.800000,0.139828,-0.467476,-0.944669
1.820000,0.020995,-0.450245,-0.893315
1.840000,-0.037603,-0.432356,-0.844888
1.860000,-0.046509,-0.410247,-0.795989
1.880000,-0.013404,-0.381088,-0.746559
1.900000,0.031825,-0.352296,-0.703531
1.920000,0.059214,-0.328276,-0.668104
1.940000,0.061952,-0.310072,-0.637388
1.960000,0.052050,-0.297380,-0.615280
1.980000,0.045098,-0.287851,-0.597955
2.000000,0.041191,-0.281455,-0.584976
2.020000,0.036376,-0.278850,-0.575094
2.040000,0.036429,-0.276667,-0.566382
2.060000,0.049119,-0.267688,-0.552768
2.080000,0.066555,-0.257444,-0.537090
2.100000,0.076729,-0.251518,-0.523618
2.120000,0.077534,-0.248310,-0.510610
2.140000,0.073886,-0.244649,-0.497891
2.160000,0.070949,-0.238343,-0.483695
2.180000,0.071954,-0.231765,-0.468442
2.200000,0.071244,-0.227611,-0.457809
2.220000,0.068064,-0.222836,-0.446178
2.240000,0.065469,-0.214822,-0.431937
2.260000,0.065878,-0.205373,-0.417797
2.280000,0.068510,-0.195572,-0.403618
2.300000,0.067336,-0.187377,-0.391672
2.320000,0.061284,-0.179471,-0.379957
2.340000,0.051037,-0.171730,-0.367965
2.360000,0.035695,-0.165289,-0.358491
2.380000,0.019745,-0.160197,-0.350978
2.400000,0.005820,-0.155336,-0.343173
2.442000,-0.000449,-0.149721,-0.333677
2.462000,-0.007005,-0.145115,-0.324071
2.482000,-0.014214,-0.140296,-0.314347
2.502000,-0.019154,-0.134862,-0.305236
2.522000,-0.021917,-0.128814,-0.295307
2.542000,-0.025406,-0.123346,-0.285804
2.562000,-0.030271,-0.118784,-0.277405
2.582000,-0.034094,-0.114799,-0.269378
2.602000,-0.036836,-0.111470,-0.261237
2.622000,-0.036422,-0.108051,-0.254087
2.642000,-0.034399,-0.104659,-0.247046
2.662000,-0.033548,-0.101953,-0.239956
2.682000,-0.034461,-0.100397,-0.234374
2.702000,-0.035645,-0.099496,-0.230038
2.722000,-0.035309,-0.098868,-0.226267
2.742000,-0.034828,-0.097865,-0.221675
2.762000,-0.035325,-0.095729,-0.215318
2.782000,-0.034800,-0.092024,-0.208542
2.802000,-0.031964,-0.087624,-0.200827
2.822000,-0.032060,-0.085514,-0.196539
2.842000,-0.034054,-0.084486,-0.194105
2.862000,-0.036434,-0.083153,-0.191273
2.882000,-0.035947,-0.080704,-0.187033
2.902000,-0.034287,-0.078163,-0.182839
2.922000,-0.034884,-0.076300,-0.179820
2.942000,-0.038921,-0.074632,-0.176962
2.962000,-0.044629,-0.072636,-0.173512
2.982000,-0.051072,-0.071005,-0.169576
3.002000,-0.056851,-0.070038,-0.166816
3.022000,-0.061232,-0.069565,-0.165177
3.042000,-0.064109,-0.069447,-0.163998
3.062000,-0.064594,-0.069310,-0.163048
3.082000,-0.062078,-0.068252,-0.161460
3.102000,-0.057911,-0.066629,-0.159317
3.122000,-0.055112,-0.064959,-0.157050
3.142000,-0.055578,-0.063437,-0.154818
3.162000,-0.058652,-0.062190,-0.152502
3.182000,-0.063651,-0.062075,-0.151382
3.202000,-0.068808,-0.062585,-0.151828
3.222000,-0.072366,-0.062817,-0.152061
3.242000,-0.075939,-0.062633,-0.151046
3.262000,-0.080509,-0.062069,-0.149156
3.282000,-0.084200,-0.060773,-0.147266
3.302000,-0.085546,-0.058644,-0.144318
3.322000,-0.087508,-0.056190,-0.140204
3.342000,-0.092323,-0.054450,-0.136584
3.362000,-0.097980,-0.053150,-0.133601
3.382000,-0.102615,-0.051867,-0.130285
3.402000,-0.107311,-0.051192,-0.127704
3.422000,-0.111934,-0.051227,-0.126242
3.442000,-0.115004,-0.051443,-0.125162
3.462000,-0.117163,-0.052052,-0.124399
3.482000,-0.118519,-0.052877,-0.124490
3.502000,-0.117318,-0.053045,-0.124333
3.522000,-0.113986,-0.052447,-0.123520
3.542000,-0.110274,-0.051151,-0.121588
3.562000,-0.108251,-0.050116,-0.119770
3.582000,-0.108030,-0.049432,-0.118660
3.602000,-0.107819,-0.048527,-0.117362
3.622000,-0.107237,-0.047692,-0.116019
3.642000,-0.106717,-0.047092,-0.114788
3.662000,-0.106719,-0.047000,-0.114140
3.682000,-0.107071,-0.047153,-0.114054
3.702000,-0.106794,-0.047198,-0.114029
3.722000,-0.105988,-0.047301,-0.114054
3.742000,-0.105132,-0.047504,-0.114227
3.762000,-0.104293,-0.047828,-0.114520
3.782000,-0.103232,-0.048074,-0.114536
3.802000,-0.101948,-0.048174,-0.114149
3.822000,-0.101277,-0.048151,-0.113528
3.842000,-0.101574,-0.048081,-0.112815
3.862000,-0.101831,-0.047662,-0.111851
3.882000,-0.100763,-0.046807,-0.110562
3.902000,-0.098628,-0.045863,-0.109271
3.922000,-0.096738,-0.045334,-0.108485
3.942000,-0.095482,-0.045181,-0.107993
3.962000,-0.094651,-0.045183,-0.107539
3.982000,-0.094310,-0.045130,-0.106978
4.002000,-0.094646,-0.044611,-0.106102
4.022000,-0.094338,-0.043459,-0.104578
4.042000,-0.092866,-0.041803,-0.102915
4.062000,-0.090573,-0.040095,-0.101408
4.082000,-0.088409,-0.038791,-0.100397
4.102000,-0.086891,-0.037843,-0.099735
4.122000,-0.085712,-0.037017,-0.099157
4.142000,-0.084477,-0.036141,-0.098326
4.162000,-0.083311,-0.035422,-0.097468
4.182000,-0.083001,-0.035189,-0.096797
4.202000,-0.084160,-0.035653,-0.096550
4.222000,-0.086012,-0.036269,-0.096501
4.242000,-0.087317,-0.036210,-0.095903
4.262000,-0.086984,-0.035099,-0.094383
4.282000,-0.085234,-0.033446,-0.092560
4.302000,-0.083508,-0.031869,-0.090916
4.322000,-0.082593,-0.030812,-0.089754
4.342000,-0.082146,-0.030327,-0.089384
4.362000,-0.080880,-0.029812,-0.089260
4.382000,-0.078309,-0.029123,-0.088882
4.402000,-0.075984,-0.028760,-0.088515
4.422000,-0.075455,-0.029075,-0.088435
4.449000,-0.077429,-0.029819,-0.088459
4.469000,-0.079631,-0.029995,-0.087930
4.489000,-0.080105,-0.029000,-0.086445
4.509000,-0.078656,-0.027206,-0.084506
4.529000,-0.076694,-0.025389,-0.082758
4.549000,-0.075336,-0.024175,-0.081585
4.569000,-0.074780,-0.023556,-0.081168
4.589000,-0.074369,-0.023193,-0.081033
4.609000,-0.073800,-0.022953,-0.080775
4.629000,-0.073460,-0.023030,-0.080554
4.649000,-0.074102,-0.023665,-0.080461
4.669000,-0.076103,-0.024837,-0.080628
4.689000,-0.078919,-0.025717,-0.080573
4.709000,-0.080593,-0.025486,-0.079774
4.729000,-0.079910,-0.024126,-0.078137
4.749000,-0.078085,-0.022446,-0.076407
4.769000,-0.076922,-0.021368,-0.075283
4.789000,-0.077336,-0.021248,-0.075035
4.809000,-0.078561,-0.021533,-0.075364
4.829000,-0.078780,-0.021430,-0.075271
4.849000,-0.077761,-0.021007,-0.074822
4.869000,-0.076548,-0.020762,-0.074439
4.889000,-0.075912,-0.021118,-0.074210
4.909000,-0.075971,-0.021966,-0.074181
4.929000,-0.076606,-0.022882,-0.074063
4.949000,-0.077399,-0.023163,-0.073638
4.969000,-0.077264,-0.022288,-0.072470
4.989000,-0.075154,-0.020490,-0.070691
5.009000,-0.072173,-0.018493,-0.068909
5.029000,-0.069729,-0.017112,-0.067539
5.049000,-0.069045,-0.016773,-0.067157
5.069000,-0.069273,-0.016872,-0.067567
5.089000,-0.067722,-0.016571,-0.068021
5.109000,-0.064128,-0.015978,-0.068395
5.129000,-0.060105,-0.015501,-0.068512
5.149000,-0.058032,-0.015524,-0.068455
5.169000,-0.059249,-0.015874,-0.068316
5.189000,-0.062515,-0.015910,-0.067525
5.209000,-0.066048,-0.015357,-0.065813
5.229000,-0.068874,-0.014322,-0.063583
5.249000,-0.070316,-0.012955,-0.061279
5.269000,-0.070377,-0.011767,-0.059571
5.289000,-0.070060,-0.011335,-0.058825
5.309000,-0.070599,-0.011645,-0.059028
5.329000,-0.071944,-0.012117,-0.059446
5.349000,-0.073413,-0.012303,-0.059424
5.369000,-0.074652,-0.012185,-0.058991
5.389000,-0.075817,-0.012028,-0.058581
5.409000,-0.076760,-0.011865,-0.058413
5.429000,-0.076372,-0.011561,-0.058273
5.449000,-0.075389,-0.011339,-0.058204
5.469000,-0.075294,-0.011401,-0.058216
5.489000,-0.076131,-0.011728,-0.058448
5.509000,-0.076758,-0.011920,-0.058659
5.529000,-0.076766,-0.011665,-0.058456
5.549000,-0.076895,-0.011142,-0.057885
5.569000,-0.077643,-0.010499,-0.057139
5.589000,-0.078659,-0.009850,-0.056518
5.609000,-0.079076,-0.009230,-0.055981
5.629000,-0.079551,-0.008746,-0.055505
5.649000,-0.081015,-0.008416,-0.055203
5.669000,-0.083256,-0.008260,-0.054793
5.689000,-0.086282,-0.008261,-0.054343
5.709000,-0.089448,-0.008222,-0.054065
5.729000,-0.091386,-0.007776,-0.053415
5.749000,-0.092609,-0.007036,-0.052267
5.769000,-0.094269,-0.006498,-0.051296
5.789000,-0.096799,-0.005987,-0.049747
5.809000,-0.098694,-0.005559,-0.049094
5.829000,-0.099316,-0.005526,-0.048417
5.849000,-0.100668,-0.005627,-0.047622
5.869000,-0.102476,-0.006146,-0.047604
5.889000,-0.104114,-0.006703,-0.047343
5.909000,-0.105497,-0.007240,-0.047071
5.929000,-0.106144,-0.007831,-0.046856
5.949000,-0.107087,-0.008585,-0.047030
5.969000,-0.108946,-0.009429,-0.047791
5.989000,-0.111252,-0.010054,-0.048443
6.009000,-0.113539,-0.010278,-0.048823
6.029000,-0.116238,-0.010395,-0.048985
6.049000,-0.119255,-0.010317,-0.048448
6.069000,-0.121860,-0.009989,-0.047367
6.089000,-0.125388,-0.009615,-0.045925
6.109000,-0.128861,-0.009780,-0.044986
6.129000,-0.132771,-0.010328,-0.044059
6.149000,-0.138246,-0.010686,-0.042870
6.169000,-0.142075,-0.011610,-0.042537
6.189000,-0.144763,-0.012006,-0.041528
6.209000,-0.146138,-0.012204,-0.040646
6.229000,-0.147048,-0.012502,-0.040390
6.249000,-0.147686,-0.012947,-0.040645
6.269000,-0.147419,-0.013344,-0.041273
6.289000,-0.146238,-0.013426,-0.041748
6.309000,-0.144433,-0.013160,-0.041825
6.329000,-0.142558,-0.012714,-0.041881
6.349000,-0.140664,-0.012098,-0.041964
6.369000,-0.138564,-0.011303,-0.041890
6.389000,-0.136737,-0.010398,-0.041356
6.409000,-0.136044,-0.009351,-0.040634
6.429000,-0.135790,-0.008382,-0.040075
