accel_time_list,accel_x_list,accel_y_list,accel_z_list
0.010000,-8.939949,-3.023877,3.069367
0.030000,-8.871714,-2.494758,3.222596
0.050000,-8.641261,-2.469835,3.303367
0.070000,-8.579693,-2.423712,3.312534
0.090000,-8.561600,-2.365247,3.295933
0.110000,-8.526671,-2.397857,3.271662
0.130000,-8.536186,-2.442855,3.258444
0.150000,-8.530353,-2.452431,3.254544
0.170000,-8.510022,-2.455031,3.239761
0.190000,-8.501958,-2.446961,3.226969
0.210000,-8.493391,-2.430486,3.223943
0.230000,-8.496913,-2.416755,3.220821
0.250000,-8.498777,-2.405883,3.216699
0.270000,-8.506747,-2.390861,3.208181
0.290000,-8.516229,-2.372990,3.199351
0.310000,-8.529056,-2.354912,3.192827
0.330000,-8.543512,-2.348531,3.184232
0.350000,-8.556512,-2.344352,3.180613
0.370000,-8.574029,-2.359948,3.145596
0.390000,-8.603930,-2.326594,3.120346
0.410000,-8.614565,-2.269318,3.110204
0.430000,-8.637584,-2.216975,3.084661
0.450000,-8.669664,-2.144331,3.044507
0.470000,-8.705496,-1.988292,3.009200
0.490000,-8.684678,-1.815874,2.986004
0.510000,-8.666677,-1.674933,2.948102
0.530000,-8.664464,-1.578187,2.893756
0.550000,-8.660538,-1.499851,2.847505
0.570000,-8.649648,-1.417254,2.806423
0.590000,-8.639151,-1.343443,2.767245
0.610000,-8.631193,-1.295108,2.722625
0.630000,-8.624288,-1.268280,2.668020
0.650000,-8.612099,-1.246380,2.606470
0.670000,-8.595361,-1.226926,2.542975
0.690000,-8.580048,-1.212244,2.480264
0.710000,-8.566474,-1.206191,2.418508
0.730000,-8.553755,-1.203569,2.353784
0.750000,-8.537330,-1.197709,2.285466
0.770000,-8.517835,-1.186873,2.215811
0.790000,-8.496416,-1.172935,2.146322
0.810000,-8.475134,-1.157697,2.076594
0.830000,-8.454533,-1.141320,2.005276
0.850000,-8.438537,-1.122518,1.931045
0.870000,-8.431080,-1.100179,1.855380
0.890000,-8.428710,-1.070330,1.782439
0.910000,-8.427768,-1.031470,1.712687
0.930000,-8.424018,-0.982781,1.636812
0.950000,-8.412992,-0.933122,1.561047
0.970000,-8.397945,-0.888825,1.494370
0.990000,-8.392567,-0.850576,1.445596
1.010000,-8.400906,-0.811242,1.413692
1.030000,-8.404636,-0.772486,1.396738
1.050000,-8.389108,-0.738751,1.392644
1.070000,-8.369164,-0.709992,1.398541
1.090000,-8.355211,-0.684193,1.409220
1.110000,-8.335407,-0.657103,1.419884
1.130000,-8.307362,-0.629220,1.440264
1.150000,-8.287899,-0.595967,1.475270
1.170000,-8.279306,-0.557038,1.516515
1.190000,-8.269804,-0.526574,1.556847
1.210000,-8.252715,-0.510512,1.597534
1.230000,-8.234848,-0.487708,1.632195
1.250000,-8.216356,-0.436935,1.669171
1.270000,-8.193695,-0.359303,1.710026
1.290000,-8.170831,-0.301806,1.735703
1.310000,-8.141698,-0.294253,1.734463
1.334000,-8.087072,-0.293934,1.728474
1.354000,-8.019414,-0.278987,1.720846
1.374000,-7.945736,-0.287812,1.696380
1.394000,-7.874591,-0.313079,1.675861
1.414000,-7.797357,-0.323741,1.633510
1.434000,-7.686779,-0.351282,1.520682
1.454000,-7.483508,-0.402846,1.292469
1.474000,-7.064231,-0.431522,0.940626
1.494000,-6.491577,-0.561360,0.511873
1.514000,-8.165048,-1.198465,3.341165
1.534000,-12.124930,-3.720482,7.761528
1.554000,-5.937593,-3.672603,-4.547335
1.574000,-4.969444,2.422370,-0.991559
1.594000,-4.058108,3.896065,10.681204
1.614000,-4.045446,0.275129,12.635822
1.634000,-4.053698,-4.028536,11.812823
1.654000,0.888770,-13.739180,8.520709
1.674000,-0.163364,-12.324490,4.636601
1.694000,-2.951259,-6.753495,3.172492
1.714000,-1.398706,-2.783065,4.001843
1.734000,-0.069846,-1.134524,5.196397
1.754000,0.172562,1.598739,6.529356
1.774000,-0.348802,2.830789,7.244507
1.794000,-2.291812,1.825449,8.524107
1.814000,-2.778715,0.053099,9.718328
1.834000,-2.247219,-3.653103,9.094665
1.854000,-1.021908,-6.384323,7.830283
1.874000,-0.992354,-6.100227,6.741403
1.894000,-1.570114,-4.814683,6.181358
1.914000,-1.680328,-5.042454,5.878252
1.934000,-1.023705,-7.257483,5.566335
1.954000,-0.642595,-9.040506,5.632174
1.974000,-0.670525,-8.868024,6.045063
1.994000,-0.615187,-8.059513,6.431228
2.155000,-0.520718,-8.158964,6.471640
2.175000,-0.431111,-8.016506,6.516382
2.195000,-0.414353,-7.819071,6.608963
2.215000,-0.453869,-7.721291,6.683445
2.235000,-0.510363,-7.639566,6.729803
2.255000,-0.567215,-7.549415,6.781664
2.275000,-0.608686,-7.534355,6.820097
2.295000,-0.641363,-7.557296,6.857968
2.315000,-0.663062,-7.535416,6.902214
2.335000,-0.666277,-7.491652,6.940164
2.355000,-0.665917,-7.468526,6.966808
2.375000,-0.664856,-7.477154,6.970277
2.395000,-0.665589,-7.492866,6.969071
2.415000,-0.665781,-7.510298,6.976948
2.435000,-0.675121,-7.515501,6.995566
2.455000,-0.699953,-7.500852,7.024243
2.475000,-0.723064,-7.470130,7.054691
2.495000,-0.732997,-7.436311,7.075286
2.515000,-0.744156,-7.422137,7.086400
2.535000,-0.761575,-7.418906,7.100865
2.555000,-0.779505,-7.415463,7.121541
2.575000,-0.787337,-7.414119,7.142085
2.595000,-0.781880,-7.405563,7.165971
2.615000,-0.770500,-7.385156,7.194839
2.635000,-0.758836,-7.353193,7.227711
2.655000,-0.753108,-7.309487,7.264366
2.675000,-0.756817,-7.254321,7.302499
2.695000,-0.763727,-7.196649,7.338295
2.715000,-0.768792,-7.147449,7.369342
2.735000,-0.773243,-7.113223,7.394338
2.755000,-0.781833,-7.099045,7.416526
2.775000,-0.788515,-7.099038,7.432697
2.795000,-0.788610,-7.104033,7.442325
2.815000,-0.785797,-7.103887,7.448134
2.835000,-0.785294,-7.098751,7.456877
2.855000,-0.787911,-7.091723,7.466642
2.875000,-0.791934,-7.087144,7.475098
2.895000,-0.796099,-7.087076,7.481186
2.915000,-0.800852,-7.089132,7.485945
2.935000,-0.806505,-7.093105,7.488202
2.955000,-0.810344,-7.100049,7.488863
2.975000,-0.812752,-7.108018,7.488606
2.995000,-0.816564,-7.116791,7.488360
3.015000,-0.819824,-7.123986,7.489227
3.035000,-0.821386,-7.126305,7.490108
3.055000,-0.823468,-7.126076,7.492591
3.075000,-0.826567,-7.124156,7.496965
3.095000,-0.828401,-7.120255,7.502527
3.115000,-0.829287,-7.116791,7.508211
3.135000,-0.829105,-7.112182,7.513564
3.155000,-0.828686,-7.106534,7.519576
3.175000,-0.828961,-7.101587,7.524602
3.195000,-0.830254,-7.098702,7.529506
3.215000,-0.832088,-7.095300,7.534630
3.235000,-0.833100,-7.092060,7.539173
3.255000,-0.834608,-7.089314,7.543408
3.275000,-0.836554,-7.087713,7.546822
3.295000,-0.838626,-7.086787,7.549929
3.315000,-0.840097,-7.086421,7.551760
3.335000,-0.841525,-7.086548,7.553108
3.355000,-0.843159,-7.087262,7.555292
3.375000,-0.844712,-7.088069,7.556319
3.395000,-0.845539,-7.089386,7.557427
3.415000,-0.847085,-7.090587,7.558903
3.435000,-0.848789,-7.091047,7.560084
3.455000,-0.849890,-7.091713,7.560877
3.475000,-0.851157,-7.091604,7.561751
3.495000,-0.852262,-7.091746,7.562670
3.515000,-0.852865,-7.091046,7.564346
3.535000,-0.854140,-7.089401,7.566179
3.555000,-0.855599,-7.088006,7.567764
3.575000,-0.856595,-7.088157,7.568489
3.595000,-0.858050,-7.090785,7.568419
3.615000,-0.859410,-7.094197,7.568861
3.635000,-0.860444,-7.095455,7.570015
3.655000,-0.860986,-7.094446,7.571639
3.675000,-0.861545,-7.091161,7.573776
3.695000,-0.862091,-7.087891,7.575923
3.715000,-0.863497,-7.087012,7.577630
3.735000,-0.864593,-7.088291,7.578938
3.755000,-0.865169,-7.088665,7.580276
3.775000,-0.865923,-7.089000,7.581058
3.795000,-0.866120,-7.089885,7.580873
3.815000,-0.866527,-7.091128,7.581176
3.835000,-0.867506,-7.092170,7.582118
3.855000,-0.868856,-7.092192,7.584122
3.875000,-0.869506,-7.088783,7.586772
3.895000,-0.869271,-7.082516,7.589885
3.915000,-0.868027,-7.077745,7.591558
3.935000,-0.865525,-7.078262,7.590760
3.955000,-0.863294,-7.083365,7.589396
3.975000,-0.862316,-7.088159,7.588218
3.995000,-0.861381,-7.095362,7.586233
4.015000,-0.858936,-7.104027,7.582381
4.035000,-0.857353,-7.108069,7.579493
4.055000,-0.859122,-7.105456,7.577571
4.075000,-0.865974,-7.103313,7.576919
4.095000,-0.875199,-7.103524,7.578918
4.115000,-0.886438,-7.098489,7.588113
4.135000,-0.894764,-7.082094,7.597475
4.267000,-0.894914,-7.067427,7.600720
4.287000,-0.912517,-7.069647,7.594637
4.307000,-0.928076,-7.075325,7.598046
4.327000,-0.931700,-7.079643,7.595565
4.347000,-0.935455,-7.089066,7.587148
4.367000,-0.940227,-7.100975,7.573453
4.387000,-0.941455,-7.113961,7.559162
4.407000,-0.944322,-7.126967,7.546712
4.427000,-0.946467,-7.141566,7.536854
4.447000,-0.948566,-7.156704,7.525057
4.467000,-0.953542,-7.163916,7.514645
4.487000,-0.955738,-7.172324,7.506184
4.507000,-0.954321,-7.178409,7.497287
4.527000,-0.956030,-7.187084,7.487834
4.547000,-0.959542,-7.193250,7.479501
4.567000,-0.963019,-7.201234,7.471387
4.587000,-0.965121,-7.212122,7.461387
4.607000,-0.962748,-7.223150,7.451994
4.627000,-0.961237,-7.221019,7.447293
4.647000,-0.968360,-7.222660,7.442808
4.667000,-0.958125,-7.233027,7.435657
4.687000,-0.950651,-7.238133,7.428577
4.707000,-0.956420,-7.240411,7.421784
4.727000,-0.975897,-7.237680,7.417716
4.747000,-0.998125,-7.225693,7.418142
4.767000,-0.992908,-7.220509,7.416098
4.787000,-0.987576,-7.227046,7.408424
4.807000,-0.998936,-7.228426,7.401306
4.827000,-1.001038,-7.230769,7.395719
4.847000,-0.998330,-7.245371,7.385615
4.867000,-1.001012,-7.258893,7.371494
4.887000,-1.005175,-7.267108,7.358927
4.907000,-1.009752,-7.274523,7.349072
4.927000,-1.016055,-7.282032,7.340536
4.947000,-1.020307,-7.289632,7.330864
4.967000,-1.023655,-7.298474,7.320666
4.987000,-1.026276,-7.307227,7.310380
5.007000,-1.027816,-7.315917,7.299022
5.027000,-1.029078,-7.325597,7.286127
5.047000,-1.030878,-7.334965,7.273911
5.067000,-1.030410,-7.344096,7.262559
5.087000,-1.029922,-7.353518,7.251225
5.107000,-1.030013,-7.360452,7.239669
5.127000,-1.029410,-7.367125,7.226457
5.147000,-1.031302,-7.377347,7.212874
5.167000,-1.033678,-7.389692,7.199500
5.187000,-1.035839,-7.401173,7.187216
5.207000,-1.036255,-7.410383,7.175125
5.227000,-1.036499,-7.418951,7.162691
5.247000,-1.038464,-7.426499,7.150973
5.267000,-1.037895,-7.432967,7.140244
5.287000,-1.037548,-7.438484,7.130145
5.307000,-1.037707,-7.444640,7.120025
5.327000,-1.037649,-7.452171,7.108454
5.347000,-1.038358,-7.460560,7.096202
5.367000,-1.041070,-7.468124,7.082002
5.387000,-1.042008,-7.478508,7.067709
5.407000,-1.043631,-7.491112,7.054603
5.427000,-1.042652,-7.501482,7.041515
5.447000,-1.042113,-7.511701,7.026497
5.467000,-1.043137,-7.518825,7.012775
5.487000,-1.042450,-7.527888,7.000691
5.507000,-1.040596,-7.538681,6.987040
5.527000,-1.040342,-7.549342,6.973061
5.547000,-1.041455,-7.561524,6.958474
5.567000,-1.043346,-7.571597,6.944611
5.587000,-1.045722,-7.578242,6.932899
5.607000,-1.048265,-7.583910,6.921756
5.627000,-1.054135,-7.587774,6.909130
5.647000,-1.049435,-7.595693,6.898925
5.667000,-1.053043,-7.605161,6.888048
5.687000,-1.052353,-7.611614,6.875432
5.707000,-1.050759,-7.617906,6.862266
5.727000,-1.050284,-7.626218,6.850203
5.747000,-1.049669,-7.636770,6.837974
5.767000,-1.048725,-7.646402,6.825986
5.787000,-1.049323,-7.653663,6.815189
5.807000,-1.049723,-7.659272,6.804995
5.827000,-1.049569,-7.666524,6.793716
5.847000,-1.049919,-7.674781,6.782120
5.867000,-1.049500,-7.682859,6.771024
5.887000,-1.050209,-7.690139,6.760428
5.907000,-1.051391,-7.696484,6.750437
5.927000,-1.052680,-7.702694,6.739999
5.947000,-1.052856,-7.709919,6.728989
5.967000,-1.052646,-7.717144,6.718760
5.987000,-1.052104,-7.724081,6.708850
6.007000,-1.052644,-7.730828,6.698879
6.027000,-1.053538,-7.737820,6.689557
6.047000,-1.053513,-7.744263,6.680146
6.067000,-1.052387,-7.750593,6.670645
6.087000,-1.052421,-7.756334,6.661815
6.107000,-1.052096,-7.762185,6.653020
6.127000,-1.052254,-7.768192,6.643679
6.147000,-1.052289,-7.773613,6.635282
6.167000,-1.052445,-7.778022,6.627545
6.187000,-1.052694,-7.781716,6.619913
6.207000,-1.053324,-7.786355,6.611433
6.227000,-1.054259,-7.791834,6.603383
6.247000,-1.055233,-7.798239,6.594664
6.298000,-1.055502,-7.806664,6.584460
6.318000,-1.054859,-7.815483,6.573718
6.338000,-1.054629,-7.823495,6.564102
6.358000,-1.054426,-7.830637,6.555315
6.378000,-1.054225,-7.837133,6.546037
6.398000,-1.054456,-7.844259,6.536742
6.418000,-1.054877,-7.850834,6.528295
6.438000,-1.055869,-7.855620,6.521261
6.458000,-1.056036,-7.859209,6.514347
6.478000,-1.056369,-7.863337,6.506865
6.498000,-1.056915,-7.868333,6.499650
6.518000,-1.057287,-7.873279,6.492653
6.538000,-1.057680,-7.877936,6.485628
6.558000,-1.058020,-7.882906,6.478694
6.578000,-1.058238,-7.888424,6.471659
6.598000,-1.058549,-7.893529,6.464764
6.618000,-1.059097,-7.898175,6.457814
6.638000,-1.059112,-7.903015,6.451410
6.658000,-1.059199,-7.907423,6.445601
6.678000,-1.059836,-7.911331,6.439684
6.698000,-1.060610,-7.915440,6.433466
6.718000,-1.061017,-7.919460,6.426784
6.738000,-1.060894,-7.923776,6.420360
6.758000,-1.061394,-7.928479,6.414311
6.778000,-1.062081,-7.933470,6.408299
6.798000,-1.062186,-7.938196,6.401606
6.818000,-1.063128,-7.943497,6.394524
6.838000,-1.063917,-7.949511,6.387968
6.858000,-1.064291,-7.956278,6.381884
6.878000,-1.062746,-7.960872,6.376484
6.898000,-1.061935,-7.963456,6.371545
6.918000,-1.062880,-7.966063,6.366942
6.938000,-1.064270,-7.968236,6.362697
6.958000,-1.063826,-7.971129,6.358734
6.978000,-1.063052,-7.974210,6.354187
6.998000,-1.063052,-7.977092,6.349974
7.018000,-1.063578,-7.980783,6.345803
7.038000,-1.064387,-7.983646,6.341553
7.058000,-1.064134,-7.987559,6.337131
7.078000,-1.063955,-7.990667,6.332777
7.098000,-1.063802,-7.992379,6.328347
7.118000,-1.063986,-7.996228,6.324008
7.138000,-1.064527,-8.000399,6.320551
7.158000,-1.064943,-8.004359,6.316961
7.178000,-1.065403,-8.008328,6.312282
7.198000,-1.066025,-8.010606,6.308128
7.218000,-1.066474,-8.011448,6.303681
7.238000,-1.066823,-8.012066,6.301002
7.258000,-1.068269,-8.014449,6.299882
7.278000,-1.069964,-8.018317,6.297552
7.298000,-1.071332,-8.020878,6.292588
7.318000,-1.071703,-8.025998,6.285447
7.338000,-1.070850,-8.022880,6.284004
7.358000,-1.069934,-8.022162,6.285017
7.378000,-1.071565,-8.021380,6.285637
7.398000,-1.073108,-8.020774,6.286490
7.418000,-1.074443,-8.023381,6.284558
7.438000,-1.073132,-8.023210,6.277761
7.458000,-1.075329,-8.021196,6.271773
7.478000,-1.079588,-8.020879,6.271904
7.498000,-1.083540,-8.027029,6.273540
7.518000,-1.086759,-8.032471,6.272480
7.538000,-1.087934,-8.037452,6.269251
7.558000,-1.087829,-8.046021,6.265049
7.578000,-1.088466,-8.055248,6.259691
7.598000,-1.088691,-8.059019,6.256279
7.618000,-1.090254,-8.061364,6.252709
7.638000,-1.091227,-8.063519,6.250588
7.658000,-1.091615,-8.064166,6.248703
7.678000,-1.090946,-8.063467,6.246790
7.698000,-1.091193,-8.062416,6.245637
7.718000,-1.092324,-8.062094,6.245071
7.738000,-1.092965,-8.060720,6.245492
7.758000,-1.094868,-8.061276,6.244999
7.778000,-1.095795,-8.063264,6.243649
7.798000,-1.096281,-8.064585,6.241858
7.818000,-1.096500,-8.065413,6.240132
7.838000,-1.097362,-8.067264,6.239142
7.858000,-1.098982,-8.069861,6.238760
7.878000,-1.099317,-8.071500,6.237593
7.898000,-1.098954,-8.071805,6.235718
7.918000,-1.099193,-8.072083,6.234748
7.938000,-1.099310,-8.072741,6.234770
7.958000,-1.099498,-8.073991,6.234647
7.978000,-1.100929,-8.074390,6.234143
7.998000,-1.102034,-8.075073,6.233596
8.018000,-1.102315,-8.074624,6.234036
8.038000,-1.103023,-8.074059,6.235023
8.058000,-1.104131,-8.074794,6.235233
8.078000,-1.104534,-8.074658,6.235250
8.098000,-1.105197,-8.072824,6.235960
8.118000,-1.104464,-8.071799,6.236856
8.138000,-1.104193,-8.071287,6.237095
8.158000,-1.106032,-8.070637,6.236950
8.178000,-1.107062,-8.069897,6.237045
8.198000,-1.108873,-8.069715,6.237475
8.218000,-1.110808,-8.070086,6.238403
8.238000,-1.112437,-8.071745,6.238173
8.258000,-1.114314,-8.073029,6.237370
8.278000,-1.116003,-8.073749,6.237053
