gyro_time_list,gyro_x_list,gyro_y_list,gyro_z_list
0.010000,0.696666,0.007328,0.190920
0.030000,0.602272,-0.039170,0.177464
0.050000,0.505065,-0.044287,0.139739
0.070000,0.429480,-0.044574,0.110012
0.090000,0.357715,-0.041357,0.080770
0.110000,0.296266,-0.033519,0.053725
0.130000,0.255964,-0.026466,0.037940
0.150000,0.233447,-0.022361,0.030591
0.170000,0.219481,-0.016686,0.024825
0.190000,0.208409,-0.011420,0.018856
0.210000,0.196945,-0.006915,0.013412
0.230000,0.184284,-0.003429,0.007529
0.250000,0.172166,-0.001624,0.001991
0.270000,0.160706,-0.001460,-0.002629
0.290000,0.149307,-0.002122,-0.006639
0.310000,0.137439,-0.003523,-0.010139
0.330000,0.127074,-0.005572,-0.013472
0.350000,0.120081,-0.008930,-0.017149
0.370000,0.131686,-0.013890,-0.018709
0.390000,0.154988,-0.022956,-0.019690
0.410000,0.167268,-0.030225,-0.028416
0.430000,0.175272,-0.037241,-0.039375
0.450000,0.189845,-0.046533,-0.042734
0.470000,0.189422,-0.058413,-0.026244
0.490000,0.162061,-0.069549,-0.016352
0.510000,0.102379,-0.075798,-0.010253
0.530000,0.031838,-0.078997,0.000161
0.550000,-0.033969,-0.080521,0.014501
0.570000,-0.094382,-0.080438,0.033783
0.590000,-0.155518,-0.077999,0.055620
0.610000,-0.217231,-0.073129,0.077884
0.630000,-0.273394,-0.066384,0.101211
0.650000,-0.321069,-0.057687,0.126148
0.670000,-0.362621,-0.046542,0.151905
0.690000,-0.399292,-0.033124,0.177942
0.710000,-0.429427,-0.018190,0.204229
0.730000,-0.450846,-0.002166,0.231767
0.750000,-0.464496,0.014993,0.260587
0.770000,-0.474386,0.033798,0.289232
0.790000,-0.482918,0.054454,0.316306
0.810000,-0.489094,0.076252,0.341498
0.830000,-0.490581,0.098763,0.365478
0.850000,-0.486539,0.122148,0.387821
0.870000,-0.478723,0.145837,0.407886
0.890000,-0.468593,0.168837,0.425054
0.910000,-0.458629,0.189574,0.438659
0.930000,-0.452030,0.207600,0.448306
0.950000,-0.450969,0.223966,0.453496
0.970000,-0.455690,0.239538,0.453493
0.990000,-0.464004,0.254339,0.449223
1.010000,-0.473961,0.266368,0.441672
1.030000,-0.485623,0.273692,0.430900
1.050000,-0.498698,0.277033,0.416831
1.070000,-0.510032,0.277103,0.401022
1.090000,-0.518478,0.272487,0.383904
1.110000,-0.524119,0.262751,0.365492
1.130000,-0.524734,0.249849,0.347436
1.150000,-0.519391,0.234157,0.329544
1.170000,-0.510652,0.214439,0.311919
1.190000,-0.501233,0.190242,0.292034
1.210000,-0.486506,0.161475,0.270277
1.230000,-0.461733,0.128153,0.249110
1.250000,-0.431574,0.089942,0.227208
1.270000,-0.409245,0.046445,0.200939
1.290000,-0.401067,-0.003571,0.168106
1.310000,-0.391996,-0.059323,0.131581
1.334000,-0.366723,-0.121381,0.094561
1.354000,-0.334600,-0.188037,0.059144
1.374000,-0.301247,-0.257670,0.022988
1.394000,-0.267759,-0.332036,-0.017677
1.414000,-0.237067,-0.415054,-0.061518
1.434000,-0.211905,-0.502381,-0.105480
1.454000,-0.188881,-0.577360,-0.147963
1.474000,-0.187273,-0.609398,-0.180559
1.494000,-0.258847,-0.521014,-0.176073
1.514000,-0.369717,-0.431731,-0.231054
1.534000,-0.490744,-0.590237,-0.355716
1.554000,-0.327041,-0.755233,-0.491025
1.574000,-0.145644,-0.928025,-0.588450
1.594000,-0.259392,-1.105489,-0.640634
1.614000,-0.446712,-1.284702,-0.702563
1.634000,-0.643170,-1.463247,-0.808270
1.654000,-0.726461,-1.582151,-0.916689
1.674000,-0.451029,-1.486410,-0.865083
1.694000,-0.157524,-1.423397,-0.883445
1.714000,-0.048097,-1.357635,-0.928661
1.734000,-0.059901,-1.227385,-0.932800
1.754000,-0.116538,-1.060919,-0.918611
1.774000,-0.276502,-0.891134,-0.870927
1.794000,-0.441133,-0.730343,-0.912776
1.814000,-0.653538,-0.672158,-0.811293
1.834000,-0.773398,-0.678654,-0.713103
1.854000,-0.586300,-0.681942,-0.598488
1.874000,-0.302080,-0.645151,-0.482012
1.894000,-0.249811,-0.609154,-0.387439
1.914000,-0.459367,-0.596365,-0.353823
1.934000,-0.586670,-0.568015,-0.352770
1.954000,-0.450270,-0.496281,-0.328681
1.974000,-0.278301,-0.432118,-0.330938
1.994000,-0.178654,-0.391448,-0.350362
2.155000,-0.151643,-0.384537,-0.336325
2.175000,-0.118356,-0.374375,-0.318089
2.195000,-0.096559,-0.364332,-0.293366
2.215000,-0.088617,-0.357424,-0.271562
2.235000,-0.088490,-0.351253,-0.253811
2.255000,-0.094332,-0.344203,-0.239226
2.275000,-0.100194,-0.338061,-0.225721
2.295000,-0.100033,-0.330791,-0.214654
2.315000,-0.099441,-0.323539,-0.206771
2.335000,-0.103583,-0.316443,-0.200530
2.355000,-0.109181,-0.309457,-0.192575
2.375000,-0.109887,-0.303156,-0.182292
2.395000,-0.104140,-0.296892,-0.171807
2.415000,-0.093881,-0.290146,-0.162386
2.435000,-0.080934,-0.282036,-0.154199
2.455000,-0.067634,-0.273477,-0.147390
2.475000,-0.056842,-0.266154,-0.142563
2.495000,-0.049121,-0.259050,-0.139320
2.515000,-0.041493,-0.251107,-0.136740
2.535000,-0.031540,-0.242685,-0.135094
2.555000,-0.020463,-0.234993,-0.133919
2.575000,-0.008267,-0.228314,-0.133207
2.595000,0.005678,-0.221661,-0.132685
2.615000,0.020025,-0.214828,-0.131603
2.635000,0.032908,-0.208276,-0.129958
2.655000,0.042619,-0.201355,-0.127426
2.675000,0.046659,-0.194516,-0.124551
2.695000,0.043882,-0.188653,-0.121712
2.715000,0.035256,-0.183572,-0.119190
2.735000,0.022685,-0.178526,-0.117021
2.755000,0.008533,-0.173500,-0.115446
2.775000,-0.004776,-0.169122,-0.114331
2.795000,-0.015398,-0.165161,-0.113271
2.815000,-0.023212,-0.161047,-0.111805
2.835000,-0.029450,-0.156723,-0.109708
2.855000,-0.035499,-0.152520,-0.107070
2.875000,-0.041945,-0.148665,-0.104333
2.895000,-0.048239,-0.145073,-0.101987
2.915000,-0.053798,-0.141555,-0.099972
2.935000,-0.058440,-0.138280,-0.098266
2.955000,-0.061657,-0.135270,-0.096767
2.975000,-0.063170,-0.132337,-0.095239
2.995000,-0.062841,-0.129560,-0.093808
3.015000,-0.060805,-0.127114,-0.092499
3.035000,-0.057718,-0.124740,-0.091200
3.055000,-0.054177,-0.122283,-0.089850
3.075000,-0.050735,-0.119857,-0.088761
3.095000,-0.047877,-0.117575,-0.087913
3.115000,-0.045718,-0.115348,-0.087115
3.135000,-0.044134,-0.113067,-0.086218
3.155000,-0.043237,-0.110712,-0.085179
3.175000,-0.043051,-0.108310,-0.083986
3.195000,-0.043293,-0.105937,-0.082720
3.215000,-0.043854,-0.103699,-0.081520
3.235000,-0.044843,-0.101585,-0.080342
3.255000,-0.046209,-0.099492,-0.079183
3.275000,-0.047827,-0.097458,-0.078095
3.295000,-0.049494,-0.095535,-0.077074
3.315000,-0.051010,-0.093658,-0.076117
3.335000,-0.052247,-0.091819,-0.075224
3.355000,-0.053270,-0.090076,-0.074336
3.375000,-0.054096,-0.088446,-0.073490
3.395000,-0.054585,-0.086795,-0.072650
3.415000,-0.054716,-0.085129,-0.071850
3.435000,-0.054668,-0.083547,-0.071110
3.455000,-0.054450,-0.082059,-0.070412
3.475000,-0.054127,-0.080634,-0.069733
3.495000,-0.053731,-0.079195,-0.069070
3.515000,-0.053388,-0.077759,-0.068403
3.535000,-0.053351,-0.076320,-0.067697
3.555000,-0.053662,-0.074965,-0.067053
3.575000,-0.054124,-0.073667,-0.066420
3.595000,-0.054255,-0.072418,-0.065863
3.615000,-0.053727,-0.071256,-0.065419
3.635000,-0.052746,-0.070153,-0.065033
3.655000,-0.051683,-0.069077,-0.064590
3.675000,-0.050968,-0.067999,-0.064100
3.695000,-0.050926,-0.066879,-0.063585
3.715000,-0.051320,-0.065782,-0.063138
3.735000,-0.051646,-0.064718,-0.062832
3.755000,-0.051805,-0.063683,-0.062609
3.775000,-0.051881,-0.062663,-0.062338
3.795000,-0.051721,-0.061703,-0.062018
3.815000,-0.051259,-0.060681,-0.061723
3.835000,-0.050567,-0.059548,-0.061547
3.855000,-0.049809,-0.058387,-0.061577
3.875000,-0.049515,-0.057340,-0.061799
3.895000,-0.050374,-0.056502,-0.061966
3.915000,-0.052421,-0.055730,-0.061833
3.935000,-0.054803,-0.054784,-0.061263
3.955000,-0.056561,-0.053414,-0.060399
3.975000,-0.057567,-0.051621,-0.059284
3.995000,-0.057659,-0.049682,-0.057612
4.015000,-0.056213,-0.047694,-0.054980
4.035000,-0.053334,-0.045703,-0.051346
4.055000,-0.050485,-0.043823,-0.047261
4.075000,-0.048577,-0.041884,-0.043856
4.095000,-0.046783,-0.039885,-0.042136
4.115000,-0.044647,-0.038280,-0.042066
4.135000,-0.044691,-0.037397,-0.043421
4.267000,-0.052232,-0.032025,-0.044810
4.287000,-0.059996,-0.028728,-0.045775
4.307000,-0.066387,-0.026941,-0.046647
4.327000,-0.073606,-0.026792,-0.046759
4.347000,-0.080960,-0.026388,-0.046876
4.367000,-0.087303,-0.026202,-0.047399
4.387000,-0.091637,-0.025981,-0.047976
4.407000,-0.094129,-0.025602,-0.048313
4.427000,-0.095057,-0.025460,-0.047734
4.447000,-0.094756,-0.025703,-0.046326
4.467000,-0.093957,-0.026203,-0.045467
4.487000,-0.092673,-0.026975,-0.044909
4.507000,-0.091450,-0.027034,-0.044181
4.527000,-0.090269,-0.026326,-0.043902
4.547000,-0.089023,-0.025509,-0.044498
4.567000,-0.087826,-0.024948,-0.044929
4.587000,-0.085772,-0.024440,-0.045862
4.607000,-0.082268,-0.023459,-0.047182
4.627000,-0.078347,-0.021934,-0.048107
4.647000,-0.076036,-0.020318,-0.044809
4.667000,-0.074089,-0.017877,-0.045508
4.687000,-0.069756,-0.014223,-0.043885
4.707000,-0.065396,-0.010295,-0.042668
4.727000,-0.063495,-0.008159,-0.041539
4.747000,-0.064857,-0.008810,-0.042734
4.767000,-0.069581,-0.010497,-0.042908
4.787000,-0.074561,-0.009459,-0.042805
4.807000,-0.079082,-0.008218,-0.042973
4.827000,-0.084947,-0.007453,-0.044520
4.847000,-0.090201,-0.006352,-0.045042
4.867000,-0.093017,-0.005233,-0.044802
4.887000,-0.095069,-0.004418,-0.044378
4.907000,-0.097005,-0.003868,-0.044069
4.927000,-0.098895,-0.003801,-0.043851
4.947000,-0.100912,-0.004222,-0.043532
4.967000,-0.102947,-0.004772,-0.043113
4.987000,-0.104733,-0.005303,-0.042939
5.007000,-0.106458,-0.005732,-0.043220
5.027000,-0.108078,-0.006132,-0.043792
5.047000,-0.108906,-0.006642,-0.044233
5.067000,-0.109475,-0.007002,-0.044713
5.087000,-0.109954,-0.007109,-0.045318
5.107000,-0.110672,-0.007057,-0.046083
5.127000,-0.111753,-0.006766,-0.046260
5.147000,-0.112582,-0.006063,-0.046069
5.167000,-0.112507,-0.005392,-0.046039
5.187000,-0.111864,-0.004887,-0.046331
5.207000,-0.111183,-0.004375,-0.046461
5.227000,-0.110216,-0.003965,-0.046755
5.247000,-0.109519,-0.003727,-0.046771
5.267000,-0.109203,-0.003431,-0.046964
5.287000,-0.109477,-0.002931,-0.046907
5.307000,-0.110342,-0.002409,-0.046904
5.327000,-0.111445,-0.001874,-0.046687
5.347000,-0.112723,-0.001442,-0.046357
5.367000,-0.114402,-0.001304,-0.045959
5.387000,-0.115722,-0.001109,-0.045794
5.407000,-0.116360,-0.000919,-0.045966
5.427000,-0.116651,-0.000723,-0.046123
5.447000,-0.116648,-0.000444,-0.045883
5.467000,-0.116370,-0.000155,-0.046031
5.487000,-0.116252,-0.000009,-0.045990
5.507000,-0.116041,0.000324,-0.045413
5.527000,-0.115439,0.000872,-0.044301
5.547000,-0.114236,0.001390,-0.043049
5.567000,-0.112432,0.001928,-0.042122
5.587000,-0.110709,0.002305,-0.041604
5.607000,-0.109486,0.002397,-0.041316
5.627000,-0.108658,0.002266,-0.041360
5.647000,-0.108233,0.002513,-0.041878
5.667000,-0.107956,0.002438,-0.042094
5.687000,-0.107680,0.002266,-0.042177
5.707000,-0.107582,0.002303,-0.042467
5.727000,-0.107372,0.002407,-0.042238
5.747000,-0.106798,0.002544,-0.041926
5.767000,-0.105819,0.002850,-0.041606
5.787000,-0.104759,0.003131,-0.041288
5.807000,-0.103997,0.003255,-0.040951
5.827000,-0.103512,0.003345,-0.040508
5.847000,-0.102927,0.003512,-0.040018
5.867000,-0.102223,0.003691,-0.039510
5.887000,-0.101467,0.003941,-0.039011
5.907000,-0.100839,0.004123,-0.038691
5.927000,-0.100329,0.004205,-0.038495
5.947000,-0.099669,0.004240,-0.038410
5.967000,-0.098896,0.004326,-0.038282
5.987000,-0.098070,0.004485,-0.038052
6.007000,-0.097225,0.004744,-0.037879
6.027000,-0.096377,0.004917,-0.037796
6.047000,-0.095521,0.005001,-0.037755
6.067000,-0.094639,0.005172,-0.037654
6.087000,-0.093815,0.005397,-0.037428
6.107000,-0.093094,0.005644,-0.037143
6.127000,-0.092428,0.005977,-0.036828
6.147000,-0.091786,0.006289,-0.036492
6.167000,-0.091387,0.006558,-0.036134
6.187000,-0.091466,0.006800,-0.035812
6.207000,-0.091967,0.007041,-0.035544
6.227000,-0.092703,0.007301,-0.035355
6.247000,-0.093514,0.007542,-0.035266
6.298000,-0.093919,0.007599,-0.035187
6.318000,-0.093782,0.007672,-0.035075
6.338000,-0.093170,0.007847,-0.034833
6.358000,-0.092259,0.008031,-0.034466
6.378000,-0.091206,0.008267,-0.034031
6.398000,-0.089907,0.008496,-0.033577
6.418000,-0.088349,0.008676,-0.033184
6.438000,-0.086827,0.008805,-0.032884
6.458000,-0.085682,0.008917,-0.032592
6.478000,-0.084859,0.009013,-0.032340
6.498000,-0.084180,0.009130,-0.032108
6.518000,-0.083591,0.009228,-0.031902
6.538000,-0.083091,0.009340,-0.031709
6.558000,-0.082644,0.009432,-0.031530
6.578000,-0.082167,0.009524,-0.031289
6.598000,-0.081599,0.009694,-0.031075
6.618000,-0.080995,0.009859,-0.030859
6.638000,-0.080372,0.010011,-0.030674
6.658000,-0.079800,0.010180,-0.030509
6.678000,-0.079431,0.010386,-0.030334
6.698000,-0.079169,0.010543,-0.030195
6.718000,-0.078984,0.010653,-0.030091
6.738000,-0.078820,0.010822,-0.029949
6.758000,-0.078668,0.011012,-0.029800
6.778000,-0.078497,0.011190,-0.029643
6.798000,-0.078215,0.011402,-0.029505
6.818000,-0.077754,0.011593,-0.029506
6.838000,-0.076913,0.011690,-0.029621
6.858000,-0.075599,0.011678,-0.029825
6.878000,-0.073989,0.011812,-0.029846
6.898000,-0.072465,0.012195,-0.029620
6.918000,-0.071173,0.012514,-0.029438
6.938000,-0.070176,0.012650,-0.029487
6.958000,-0.069462,0.012744,-0.029540
6.978000,-0.068932,0.012938,-0.029425
6.998000,-0.068469,0.013226,-0.029229
7.018000,-0.068048,0.013480,-0.029085
7.038000,-0.067675,0.013703,-0.028974
7.058000,-0.067296,0.013926,-0.028840
7.078000,-0.066777,0.014232,-0.028635
7.098000,-0.066324,0.014606,-0.028281
7.118000,-0.065798,0.014983,-0.027784
7.138000,-0.065116,0.015339,-0.027193
7.158000,-0.064409,0.015709,-0.026519
7.178000,-0.063393,0.016165,-0.025990
7.198000,-0.062104,0.016791,-0.025747
7.218000,-0.060713,0.017393,-0.025490
7.238000,-0.059417,0.018057,-0.025135
7.258000,-0.058473,0.018624,-0.024702
7.278000,-0.057743,0.019173,-0.024446
7.298000,-0.056646,0.019851,-0.024698
7.318000,-0.054556,0.020807,-0.025385
7.338000,-0.052430,0.021964,-0.026303
7.358000,-0.051605,0.023057,-0.026742
7.378000,-0.051757,0.024004,-0.026859
7.398000,-0.052741,0.024726,-0.026898
7.418000,-0.054062,0.025343,-0.026556
7.438000,-0.054636,0.026218,-0.025899
7.458000,-0.054859,0.027223,-0.026058
7.478000,-0.056358,0.027673,-0.026656
7.498000,-0.058109,0.027816,-0.027134
7.518000,-0.059530,0.027800,-0.027747
7.538000,-0.060653,0.027652,-0.028340
7.558000,-0.061098,0.027551,-0.028461
7.578000,-0.060347,0.027466,-0.028378
7.598000,-0.058776,0.027453,-0.028215
7.618000,-0.056836,0.027378,-0.028008
7.638000,-0.054786,0.027277,-0.027957
7.658000,-0.052780,0.027119,-0.027809
7.678000,-0.051066,0.026992,-0.027413
7.698000,-0.049696,0.026994,-0.026893
7.718000,-0.048688,0.026997,-0.026486
7.738000,-0.048262,0.027035,-0.026161
7.758000,-0.048268,0.026929,-0.025891
7.778000,-0.048347,0.026809,-0.025854
7.798000,-0.048309,0.026711,-0.025914
7.818000,-0.048153,0.026641,-0.025872
7.838000,-0.047862,0.026618,-0.025762
7.858000,-0.047491,0.026550,-0.025698
7.878000,-0.046924,0.026486,-0.025706
7.898000,-0.046151,0.026446,-0.025737
7.918000,-0.045237,0.026414,-0.025700
7.938000,-0.044427,0.026368,-0.025394
7.958000,-0.043701,0.026376,-0.024807
7.978000,-0.042981,0.026396,-0.024206
7.998000,-0.042220,0.026351,-0.023807
8.018000,-0.041551,0.026276,-0.023542
8.038000,-0.041167,0.026187,-0.023205
8.058000,-0.040862,0.026048,-0.022925
8.078000,-0.040450,0.025968,-0.022752
8.098000,-0.040269,0.025786,-0.022536
8.118000,-0.040418,0.025599,-0.021991
8.138000,-0.040621,0.025538,-0.021173
8.158000,-0.040924,0.025419,-0.020279
8.178000,-0.041307,0.025275,-0.019252
8.198000,-0.041755,0.025182,-0.018389
8.218000,-0.042387,0.025037,-0.017742
8.238000,-0.042981,0.024901,-0.017262
8.258000,-0.043348,0.024764,-0.017004
8.278000,-0.043557,0.024613,-0.016970
