accel_time_list,accel_x_list,accel_y_list,accel_z_list
0.010000,-2.507500,-3.527500,8.627500
0.030000,-2.475000,-3.347500,8.770000
0.050000,-2.357500,-3.292500,8.955000
0.070000,-2.342500,-3.292500,8.972500
0.090000,-2.382500,-3.245000,8.970000
0.110000,-2.515000,-3.057500,9.062500
0.130000,-2.820000,-2.837500,9.217500
0.150000,-2.940000,-2.587500,9.377500
0.170000,-2.957500,-2.402500,9.462500
0.190000,-3.042500,-2.245000,9.582500
0.210000,-3.197500,-2.100000,9.745000
0.230000,-3.352500,-1.970000,9.882500
0.250000,-3.460000,-1.852500,9.972500
0.270000,-3.552500,-1.802500,10.070000
0.290000,-3.660000,-1.847500,10.190000
0.310000,-3.760000,-1.910000,10.295000
0.330000,-3.817500,-1.930000,10.355000
0.350000,-3.832500,-1.922500,10.382500
0.370000,-3.822500,-1.937500,10.417500
0.390000,-3.817500,-1.970000,10.457500
0.410000,-3.805000,-1.985000,10.472500
0.430000,-3.770000,-1.977500,10.460000
0.450000,-3.710000,-1.962500,10.435000
0.470000,-3.635000,-1.980000,10.410000
0.490000,-3.560000,-2.002500,10.385000
0.510000,-3.492500,-2.002500,10.360000
0.530000,-3.422500,-1.995000,10.335000
0.550000,-3.352500,-2.015000,10.302500
0.570000,-3.285000,-2.047500,10.265000
0.590000,-3.212500,-2.057500,10.230000
0.610000,-3.135000,-2.050000,10.207500
0.630000,-3.067500,-2.050000,10.187500
0.650000,-3.005000,-2.062500,10.160000
0.670000,-2.935000,-2.067500,10.130000
0.690000,-2.855000,-2.055000,10.105000
0.710000,-2.787500,-2.030000,10.085000
0.730000,-2.732500,-2.000000,10.067500
0.750000,-2.677500,-1.980000,10.050000
0.770000,-2.617500,-1.970000,10.027500
0.790000,-2.560000,-1.960000,10.002500
0.810000,-2.510000,-1.945000,9.972500
0.830000,-2.452500,-1.927500,9.932500
0.850000,-2.390000,-1.900000,9.882500
0.870000,-2.327500,-1.862500,9.835000
0.890000,-2.262500,-1.815000,9.790000
0.910000,-2.197500,-1.765000,9.750000
0.930000,-2.157500,-1.712500,9.710000
0.950000,-2.130000,-1.662500,9.672500
0.970000,-2.097500,-1.612500,9.630000
0.990000,-2.065000,-1.572500,9.582500
1.010000,-2.037500,-1.540000,9.535000
1.030000,-2.010000,-1.510000,9.485000
1.050000,-1.982500,-1.477500,9.427500
1.070000,-1.962500,-1.450000,9.367500
1.090000,-1.945000,-1.425000,9.305000
1.110000,-1.920000,-1.397500,9.237500
1.130000,-1.890000,-1.372500,9.162500
1.150000,-1.860000,-1.347500,9.072500
1.170000,-1.832500,-1.327500,8.965000
1.190000,-1.802500,-1.305000,8.845000
1.210000,-1.777500,-1.280000,8.710000
1.230000,-1.770000,-1.257500,8.540000
1.250000,-1.790000,-1.235000,8.322500
1.270000,-1.825000,-1.202500,8.080000
1.290000,-1.880000,-1.167500,7.822500
1.310000,-1.990000,-1.147500,7.497500
1.330000,-2.170000,-1.175000,7.067500
1.350000,-2.372500,-1.227500,6.577500
1.370000,-2.532500,-1.297500,6.102500
1.390000,-2.600000,-1.427500,5.547500
1.410000,-2.470000,-1.555000,4.645000
1.430000,-2.340000,-1.570000,3.950000
1.450000,-3.005000,-1.620000,5.150000
1.470000,-6.190000,-3.117500,11.525000
1.490000,-7.367500,-4.942500,5.592500
1.510000,5.642500,-2.405000,-3.267500
1.530000,20.217500,2.545000,-5.897500
1.550000,12.065000,5.260000,-5.385000
1.570000,3.382500,4.630000,-2.947500
1.590000,-6.812500,1.680000,-2.295000
1.610000,-10.175000,0.015000,-3.085000
1.630000,-7.277500,-0.355000,-4.612500
1.650000,-2.597500,-0.552500,-4.947500
1.670000,4.960000,-0.830000,-3.927500
1.690000,7.030000,-0.930000,-2.375000
1.710000,5.585000,-0.647500,-0.505000
1.730000,4.860000,-0.362500,0.825000
1.750000,4.782500,-0.590000,1.325000
1.770000,5.052500,-1.207500,1.635000
1.790000,5.102500,-1.527500,2.295000
1.810000,4.257500,-1.455000,3.565000
1.830000,2.565000,-1.290000,5.500000
1.850000,0.372500,-1.587500,9.100000
1.870000,-0.220000,-2.457500,11.887500
1.890000,0.365000,-2.842500,11.792500
1.910000,0.577500,-2.812500,11.075000
1.930000,0.437500,-2.460000,10.437500
1.950000,0.242500,-2.030000,9.965000
1.970000,0.227500,-1.695000,9.587500
1.990000,0.330000,-1.517500,9.425000
2.011000,0.327500,-1.545000,9.470000
2.031000,0.212500,-1.665000,9.742500
2.051000,0.055000,-1.737500,10.187500
2.071000,-0.072500,-1.750000,10.582500
2.091000,-0.115000,-1.757500,10.620000
2.111000,-0.052500,-1.737500,10.452500
2.131000,0.035000,-1.707500,10.312500
2.151000,0.027500,-1.695000,10.315000
2.171000,-0.037500,-1.712500,10.400000
2.191000,-0.040000,-1.750000,10.445000
2.211000,0.025000,-1.737500,10.442500
2.231000,0.035000,-1.682500,10.465000
2.251000,-0.025000,-1.645000,10.510000
2.271000,-0.067500,-1.650000,10.550000
2.291000,-0.075000,-1.680000,10.582500
2.311000,-0.082500,-1.697500,10.605000
2.331000,-0.087500,-1.690000,10.610000
2.351000,-0.092500,-1.682500,10.607500
2.371000,-0.097500,-1.692500,10.607500
2.391000,-0.105000,-1.707500,10.615000
2.411000,-0.107500,-1.705000,10.617500
2.431000,-0.117500,-1.700000,10.620000
2.451000,-0.125000,-1.707500,10.612500
2.471000,-0.117500,-1.720000,10.607500
2.491000,-0.107500,-1.717500,10.612500
2.511000,-0.105000,-1.695000,10.622500
2.531000,-0.102500,-1.680000,10.627500
2.551000,-0.095000,-1.680000,10.630000
2.571000,-0.085000,-1.690000,10.630000
2.591000,-0.077500,-1.687500,10.632500
2.611000,-0.077500,-1.677500,10.637500
2.631000,-0.072500,-1.660000,10.642500
2.651000,-0.067500,-1.657500,10.645000
2.671000,-0.065000,-1.667500,10.647500
2.691000,-0.065000,-1.672500,10.652500
2.711000,-0.060000,-1.672500,10.652500
2.731000,-0.057500,-1.680000,10.647500
2.751000,-0.055000,-1.690000,10.645000
2.771000,-0.055000,-1.697500,10.650000
2.791000,-0.057500,-1.700000,10.657500
2.811000,-0.060000,-1.705000,10.660000
2.831000,-0.062500,-1.715000,10.657500
2.851000,-0.065000,-1.725000,10.657500
2.871000,-0.065000,-1.730000,10.652500
2.891000,-0.062500,-1.732500,10.652500
2.911000,-0.060000,-1.732500,10.657500
2.931000,-0.062500,-1.732500,10.667500
2.951000,-0.070000,-1.735000,10.672500
2.971000,-0.077500,-1.735000,10.670000
2.991000,-0.085000,-1.725000,10.670000
3.011000,-0.097500,-1.712500,10.670000
3.031000,-0.115000,-1.702500,10.670000
3.051000,-0.135000,-1.695000,10.667500
3.071000,-0.150000,-1.695000,10.670000
3.091000,-0.167500,-1.692500,10.672500
3.111000,-0.185000,-1.690000,10.672500
3.131000,-0.205000,-1.680000,10.670000
3.151000,-0.227500,-1.670000,10.672500
3.171000,-0.252500,-1.665000,10.672500
3.191000,-0.275000,-1.660000,10.670000
3.211000,-0.295000,-1.655000,10.665000
3.231000,-0.315000,-1.650000,10.662500
3.251000,-0.340000,-1.642500,10.662500
3.271000,-0.370000,-1.632500,10.662500
3.291000,-0.397500,-1.622500,10.660000
3.311000,-0.422500,-1.615000,10.655000
3.331000,-0.447500,-1.612500,10.650000
3.351000,-0.472500,-1.612500,10.650000
3.371000,-0.500000,-1.612500,10.650000
3.391000,-0.527500,-1.612500,10.645000
3.411000,-0.557500,-1.612500,10.642500
3.431000,-0.590000,-1.612500,10.637500
3.451000,-0.622500,-1.612500,10.632500
3.471000,-0.657500,-1.610000,10.625000
3.491000,-0.692500,-1.607500,10.620000
3.511000,-0.727500,-1.607500,10.612500
3.531000,-0.765000,-1.607500,10.602500
3.551000,-0.802500,-1.607500,10.595000
3.571000,-0.842500,-1.605000,10.590000
3.591000,-0.882500,-1.602500,10.582500
3.611000,-0.920000,-1.600000,10.575000
3.631000,-0.960000,-1.600000,10.567500
3.651000,-0.997500,-1.600000,10.560000
3.671000,-1.035000,-1.600000,10.555000
3.691000,-1.070000,-1.600000,10.550000
3.711000,-1.110000,-1.600000,10.545000
3.731000,-1.150000,-1.597500,10.535000
3.751000,-1.190000,-1.597500,10.527500
3.771000,-1.230000,-1.597500,10.520000
3.791000,-1.272500,-1.595000,10.515000
3.811000,-1.315000,-1.595000,10.507500
3.831000,-1.360000,-1.595000,10.497500
3.851000,-1.402500,-1.595000,10.487500
3.871000,-1.445000,-1.595000,10.477500
3.891000,-1.490000,-1.595000,10.465000
3.911000,-1.535000,-1.592500,10.457500
3.931000,-1.580000,-1.592500,10.447500
3.951000,-1.622500,-1.590000,10.437500
3.971000,-1.665000,-1.592500,10.427500
3.991000,-1.710000,-1.592500,10.420000
4.012000,-1.755000,-1.590000,10.410000
4.032000,-1.797500,-1.587500,10.400000
4.052000,-1.842500,-1.587500,10.392500
4.072000,-1.885000,-1.587500,10.382500
4.092000,-1.927500,-1.585000,10.375000
4.112000,-1.967500,-1.585000,10.365000
4.132000,-2.007500,-1.585000,10.355000
4.152000,-2.047500,-1.585000,10.347500
4.172000,-2.087500,-1.582500,10.337500
4.192000,-2.127500,-1.580000,10.330000
4.212000,-2.167500,-1.577500,10.322500
4.232000,-2.205000,-1.577500,10.315000
4.252000,-2.245000,-1.575000,10.305000
4.272000,-2.282500,-1.572500,10.297500
4.292000,-2.317500,-1.570000,10.287500
4.312000,-2.352500,-1.567500,10.280000
4.332000,-2.387500,-1.565000,10.272500
4.352000,-2.422500,-1.565000,10.265000
4.372000,-2.457500,-1.565000,10.257500
4.392000,-2.492500,-1.562500,10.247500
4.412000,-2.525000,-1.562500,10.240000
4.432000,-2.560000,-1.560000,10.232500
4.452000,-2.595000,-1.555000,10.225000
4.472000,-2.627500,-1.552500,10.217500
4.492000,-2.657500,-1.550000,10.210000
4.512000,-2.687500,-1.547500,10.202500
4.532000,-2.717500,-1.547500,10.192500
4.552000,-2.750000,-1.547500,10.187500
4.572000,-2.782500,-1.545000,10.177500
4.592000,-2.812500,-1.542500,10.170000
4.612000,-2.842500,-1.537500,10.162500
4.632000,-2.877500,-1.537500,10.160000
4.652000,-2.915000,-1.540000,10.155000
4.672000,-2.942500,-1.540000,10.145000
4.692000,-2.965000,-1.535000,10.135000
4.712000,-2.995000,-1.527500,10.130000
4.732000,-3.035000,-1.525000,10.130000
4.752000,-3.072500,-1.522500,10.130000
4.772000,-3.095000,-1.517500,10.125000
4.792000,-3.117500,-1.515000,10.117500
4.812000,-3.147500,-1.515000,10.112500
4.832000,-3.177500,-1.515000,10.107500
4.852000,-3.195000,-1.510000,10.102500
4.872000,-3.212500,-1.497500,10.100000
4.892000,-3.235000,-1.490000,10.100000
4.912000,-3.257500,-1.487500,10.100000
4.932000,-3.275000,-1.487500,10.100000
4.952000,-3.292500,-1.480000,10.105000
4.972000,-3.315000,-1.470000,10.112500
4.992000,-3.337500,-1.462500,10.117500
5.012000,-3.355000,-1.462500,10.125000
5.032000,-3.370000,-1.467500,10.127500
5.052000,-3.380000,-1.475000,10.132500
5.072000,-3.390000,-1.477500,10.137500
5.092000,-3.402500,-1.480000,10.147500
5.112000,-3.415000,-1.487500,10.152500
5.132000,-3.422500,-1.500000,10.157500
5.152000,-3.425000,-1.512500,10.160000
5.172000,-3.425000,-1.515000,10.162500
5.192000,-3.422500,-1.520000,10.165000
5.212000,-3.417500,-1.530000,10.162500
5.232000,-3.410000,-1.545000,10.157500
5.252000,-3.402500,-1.557500,10.160000
5.272000,-3.397500,-1.572500,10.162500
5.292000,-3.395000,-1.585000,10.162500
5.312000,-3.387500,-1.595000,10.157500
5.332000,-3.375000,-1.602500,10.152500
5.352000,-3.362500,-1.605000,10.152500
5.372000,-3.355000,-1.607500,10.147500
5.392000,-3.342500,-1.607500,10.142500
5.412000,-3.325000,-1.605000,10.137500
5.432000,-3.305000,-1.597500,10.137500
5.452000,-3.287500,-1.592500,10.132500
5.472000,-3.267500,-1.585000,10.127500
5.492000,-3.242500,-1.577500,10.122500
5.512000,-3.215000,-1.567500,10.122500
5.532000,-3.192500,-1.560000,10.122500
5.552000,-3.162500,-1.552500,10.120000
5.572000,-3.130000,-1.545000,10.117500
5.592000,-3.095000,-1.537500,10.115000
5.612000,-3.060000,-1.527500,10.115000
5.632000,-3.027500,-1.522500,10.115000
5.652000,-2.992500,-1.515000,10.117500
5.672000,-2.957500,-1.505000,10.117500
5.692000,-2.920000,-1.490000,10.120000
5.712000,-2.880000,-1.477500,10.125000
5.732000,-2.837500,-1.467500,10.127500
5.752000,-2.792500,-1.455000,10.132500
5.772000,-2.750000,-1.445000,10.137500
5.792000,-2.705000,-1.435000,10.142500
5.812000,-2.662500,-1.430000,10.147500
5.832000,-2.617500,-1.425000,10.155000
5.852000,-2.577500,-1.420000,10.162500
5.872000,-2.537500,-1.417500,10.167500
5.892000,-2.490000,-1.415000,10.170000
5.912000,-2.442500,-1.410000,10.170000
5.932000,-2.392500,-1.405000,10.170000
5.952000,-2.347500,-1.405000,10.172500
5.972000,-2.300000,-1.405000,10.172500
5.992000,-2.252500,-1.402500,10.175000
