gyro_time_list,gyro_x_list,gyro_y_list,gyro_z_list
0.726,-0.066216,-0.878127,-1.231856
0.746,0.000733,-0.87846,-1.256571
0.766,0.085986,-0.884167,-1.276064
0.786,0.163115,-0.902816,-1.29159
0.806,0.233073,-0.923742,-1.304625
0.826,0.299427,-0.945167,-1.314433
0.846,0.342848,-0.970178,-1.320272
0.866,0.364161,-0.995313,-1.325905
0.886,0.379742,-1.020127,-1.331045
0.906,0.383002,-1.044595,-1.335599
0.926,0.374099,-1.064643,-1.34013
0.946,0.372429,-1.07845,-1.343055
0.966,0.390539,-1.089929,-1.341229
0.986,0.418085,-1.101844,-1.332064
1.006,0.440521,-1.111765,-1.315386
1.026,0.454971,-1.117071,-1.29188
1.046,0.470097,-1.118677,-1.260752
1.066,0.487748,-1.118121,-1.22107
1.086,0.498625,-1.115283,-1.173493
1.106,0.493772,-1.108828,-1.12002
1.126,0.475275,-1.098478,-1.061152
1.146,0.44957,-1.084638,-0.997526
1.166,0.418612,-1.066935,-0.929454
1.186,0.383583,-1.045604,-0.857166
1.206,0.342949,-1.022001,-0.781611
1.226,0.294688,-0.996961,-0.703628
1.246,0.243147,-0.969461,-0.623985
1.266,0.192593,-0.942009,-0.542415
1.286,0.142888,-0.919028,-0.460371
1.306,0.094017,-0.900572,-0.380251
1.326,0.048753,-0.884467,-0.30244
1.346,0.012103,-0.870595,-0.228789
1.366,-0.015702,-0.860081,-0.16179
1.386,-0.040155,-0.852341,-0.103305
1.406,-0.067322,-0.846035,-0.054528
1.426,-0.095345,-0.841683,-0.016849
1.446,-0.121354,-0.840066,0.009948
1.466,-0.143642,-0.841008,0.027229
1.486,-0.161724,-0.843785,0.036514
1.506,-0.176678,-0.847301,0.040152
1.526,-0.18568,-0.851986,0.038945
1.546,-0.187327,-0.85776,0.033934
1.566,-0.184553,-0.86376,0.026654
1.586,-0.178797,-0.870374,0.016237
1.606,-0.168073,-0.878337,0.002034
1.626,-0.151969,-0.886626,-0.015399
1.646,-0.133167,-0.894186,-0.035155
1.666,-0.112033,-0.902485,-0.057402
1.686,-0.089269,-0.913341,-0.081512
1.706,-0.066634,-0.925321,-0.107241
1.726,-0.043949,-0.93778,-0.134405
1.746,-0.020303,-0.950009,-0.163265
1.766,0.005696,-0.960358,-0.193567
1.786,0.032022,-0.97047,-0.224337
1.806,0.054786,-0.982012,-0.255509
1.826,0.071524,-0.994373,-0.28565
1.846,0.090481,-1.003466,-0.310513
1.866,0.109985,-1.013808,-0.325614
1.886,0.114296,-1.04039,-0.326821
1.906,0.10362,-1.074643,-0.32614
1.926,0.096821,-1.097293,-0.323196
1.946,0.0954,-1.113384,-0.326218
1.966,0.087263,-1.118211,-0.336011
1.986,0.106396,-1.0932,-0.346706
2.006,0.170352,-1.036366,-0.352827
2.026,0.199151,-0.927588,-0.336988
2.046,0.147344,-0.778894,-0.281056
2.066,0.056981,-0.609124,-0.153758
2.086,-0.043693,-0.699369,-0.232551
2.106,0.101582,-0.845278,-0.283491
2.126,0.260004,-0.997663,-0.420389
2.146,0.430235,-1.154775,-0.41818
2.166,0.251784,-1.314707,-0.291994
2.186,0.021385,-1.4755,-0.248565
2.206,-0.170101,-1.63525,-0.234608
2.226,-0.103457,-1.61668,-0.244125
2.246,0.069123,-1.504009,-0.260838
2.266,0.175694,-1.3701,-0.275906
2.286,0.155789,-1.243157,-0.275944
2.306,0.049857,-1.117325,-0.263407
2.326,-0.070117,-0.994541,-0.243383
2.346,-0.15097,-0.872558,-0.225222
2.366,-0.17706,-0.729069,-0.213057
2.386,-0.156075,-0.548304,-0.198127
2.406,-0.106337,-0.338345,-0.185695
2.426,-0.037711,-0.119305,-0.177793
2.446,0.01921,0.083024,-0.170657
2.466,0.025941,0.235461,-0.161753
2.486,-0.00418,0.316629,-0.14642
2.506,-0.033031,0.330741,-0.131162
2.526,-0.049075,0.308107,-0.12443
2.546,-0.061594,0.277362,-0.123979
2.566,-0.076826,0.247192,-0.12537
2.586,-0.091067,0.216928,-0.128053
2.606,-0.098093,0.187453,-0.131139
2.626,-0.097724,0.16406,-0.132478
2.646,-0.095658,0.15132,-0.131516
2.666,-0.092403,0.148052,-0.129734
2.686,-0.085082,0.151751,-0.127667
2.706,-0.074055,0.161054,-0.126211
3.503,-0.076887,0.155618,-0.123214
3.523,-0.077957,0.150263,-0.120636
3.543,-0.077054,0.14511,-0.118186
3.563,-0.074165,0.140606,-0.115881
3.583,-0.070147,0.136599,-0.113826
3.603,-0.065951,0.132722,-0.112019
3.623,-0.062263,0.128975,-0.11029
3.643,-0.059805,0.125417,-0.108588
3.663,-0.05878,0.122114,-0.106806
3.683,-0.058955,0.119034,-0.105026
3.703,-0.058953,0.116264,-0.103256
3.723,-0.05844,0.113718,-0.101489
3.743,-0.057977,0.111326,-0.099769
3.763,-0.057732,0.109082,-0.098059
3.783,-0.057483,0.106945,-0.096354
3.803,-0.057045,0.104893,-0.094766
3.823,-0.05655,0.10294,-0.093309
3.843,-0.056116,0.101025,-0.091961
3.863,-0.055784,0.099115,-0.090651
3.883,-0.055579,0.097252,-0.089375
3.903,-0.055425,0.095483,-0.088098
3.923,-0.055136,0.094006,-0.086863
3.943,-0.054582,0.092499,-0.085659
3.963,-0.054041,0.090802,-0.084619
3.983,-0.053589,0.089273,-0.083627
4.003,-0.0535,0.087686,-0.082659
4.023,-0.053735,0.086162,-0.08158
4.043,-0.053687,0.084915,-0.080502
4.063,-0.053254,0.083706,-0.079449
4.083,-0.052767,0.082473,-0.078499
4.103,-0.0523,0.081326,-0.077617
4.123,-0.051962,0.080216,-0.07677
4.143,-0.051833,0.079124,-0.075922
4.163,-0.051868,0.078095,-0.075083
4.183,-0.051854,0.077127,-0.0743
4.203,-0.051729,0.076223,-0.073543
4.223,-0.051675,0.075331,-0.072758
4.243,-0.051744,0.074428,-0.071929
4.263,-0.05169,0.073545,-0.071156
4.283,-0.05136,0.072683,-0.070456
4.303,-0.050919,0.071849,-0.069796
4.323,-0.050629,0.071019,-0.069137
4.343,-0.05052,0.070209,-0.068486
4.363,-0.050453,0.069412,-0.067842
4.383,-0.050446,0.068642,-0.067187
4.403,-0.050501,0.068034,-0.066517
4.423,-0.050413,0.067422,-0.065836
4.443,-0.050188,0.066665,-0.065279
4.463,-0.049874,0.066001,-0.064777
4.483,-0.04986,0.065299,-0.064248
4.503,-0.05021,0.064525,-0.063626
4.523,-0.050374,0.063913,-0.063032
4.543,-0.050162,0.063369,-0.062506
4.563,-0.049915,0.062806,-0.06198
4.583,-0.049812,0.062277,-0.061419
4.603,-0.049672,0.061732,-0.060906
4.623,-0.049492,0.061191,-0.060442
4.643,-0.049387,0.060698,-0.060001
4.663,-0.04937,0.060217,-0.059543
4.683,-0.049333,0.059757,-0.059087
4.703,-0.049296,0.059323,-0.058636
4.723,-0.049292,0.058889,-0.05816
4.743,-0.049295,0.058457,-0.057686
4.763,-0.049201,0.058045,-0.057241
4.783,-0.049006,0.057634,-0.056833
4.803,-0.048822,0.057232,-0.05644
4.823,-0.048757,0.056833,-0.056026
4.843,-0.048766,0.056431,-0.055603
4.863,-0.048794,0.056042,-0.055167
4.883,-0.048846,0.05566,-0.054725
4.903,-0.048894,0.055408,-0.054281
4.923,-0.048772,0.05512,-0.053844
4.943,-0.048568,0.054726,-0.053524
4.963,-0.048378,0.05441,-0.053198
4.983,-0.048498,0.054004,-0.052815
5.003,-0.048852,0.053588,-0.052369
5.023,-0.048911,0.053292,-0.05195
5.043,-0.048682,0.053012,-0.051577
5.063,-0.0485,0.052739,-0.051193
5.083,-0.048457,0.052474,-0.050764
5.103,-0.048364,0.052172,-0.05038
5.123,-0.048236,0.051874,-0.050059
5.143,-0.048248,0.051614,-0.049735
5.163,-0.048396,0.051368,-0.049391
5.183,-0.04841,0.051139,-0.049033
5.203,-0.048286,0.0509,-0.048677
5.223,-0.048224,0.050636,-0.048325
5.243,-0.048198,0.050364,-0.047979
5.263,-0.048095,0.050107,-0.047648
5.283,-0.047949,0.049855,-0.047325
5.303,-0.04786,0.049591,-0.046997
5.323,-0.047854,0.049317,-0.046655
5.343,-0.047874,0.049045,-0.046328
5.363,-0.047888,0.048795,-0.046008
5.383,-0.047909,0.048516,-0.045678
5.403,-0.047957,0.048287,-0.04534
5.423,-0.047915,0.048123,-0.044993
5.443,-0.047719,0.047853,-0.044732
5.463,-0.047525,0.047545,-0.044534
5.483,-0.047512,0.047282,-0.044313
5.645,-0.047551,0.047039,-0.044067
5.665,-0.047684,0.046807,-0.043779
5.685,-0.047748,0.046597,-0.043481
5.705,-0.047726,0.046388,-0.043188
5.725,-0.047695,0.046146,-0.042888
5.745,-0.047669,0.045899,-0.0426
5.765,-0.047555,0.04566,-0.042339
5.785,-0.047393,0.04543,-0.042089
5.805,-0.047331,0.0452,-0.04182
5.825,-0.047371,0.044967,-0.041547
5.845,-0.04743,0.044726,-0.04128
5.865,-0.047461,0.044499,-0.041021
5.885,-0.047455,0.04427,-0.040752
5.905,-0.047429,0.044008,-0.040483
5.925,-0.047437,0.043813,-0.040216
5.945,-0.047395,0.0437,-0.039926
5.965,-0.047265,0.043471,-0.039686
5.985,-0.047122,0.043226,-0.039519
6.005,-0.047152,0.043008,-0.039341
6.025,-0.047551,0.042691,-0.039062
6.045,-0.047892,0.042425,-0.038766
6.065,-0.047763,0.042245,-0.038529
6.085,-0.047467,0.04204,-0.03831
6.105,-0.047381,0.04184,-0.038055
6.125,-0.047339,0.041643,-0.037782
6.145,-0.047244,0.041419,-0.037583
6.165,-0.047274,0.041211,-0.03742
6.185,-0.047423,0.041028,-0.037244
6.205,-0.047511,0.040844,-0.037064
6.225,-0.047518,0.040612,-0.03692
6.245,-0.047558,0.04042,-0.03679
6.265,-0.047587,0.040214,-0.036658
6.285,-0.047561,0.039812,-0.036643
6.305,-0.047379,0.039341,-0.036874
6.325,-0.046977,0.039105,-0.037175
6.345,-0.046667,0.038999,-0.037366
6.365,-0.047185,0.038435,-0.037418
6.385,-0.049867,0.037224,-0.037127
6.405,-0.05335,0.035867,-0.036716
6.425,-0.056332,0.034777,-0.036174
6.445,-0.058757,0.033726,-0.03534
6.465,-0.06104,0.032233,-0.034641
6.485,-0.064612,0.030015,-0.03418
6.505,-0.068867,0.027354,-0.033767
6.525,-0.072274,0.024448,-0.033504
6.545,-0.074702,0.020526,-0.0341
6.565,-0.077317,0.015041,-0.035277
6.585,-0.078743,0.008799,-0.036751
6.605,-0.074325,0.001559,-0.037661
6.625,-0.065143,-0.007254,-0.038543
6.645,-0.0553,-0.017854,-0.040166
6.665,-0.046849,-0.030333,-0.042918
6.685,-0.039956,-0.044503,-0.046978
6.705,-0.034151,-0.060564,-0.052468
6.725,-0.028304,-0.077885,-0.059383
6.745,-0.021648,-0.095831,-0.067277
6.765,-0.015536,-0.114553,-0.076815
6.785,-0.010486,-0.134,-0.088392
6.805,-0.006167,-0.153705,-0.101371
6.825,-0.002964,-0.173559,-0.115535
6.845,-0.001683,-0.193362,-0.131589
6.865,-0.001903,-0.212795,-0.149353
6.885,-0.002927,-0.231258,-0.167152
6.905,-0.004376,-0.247972,-0.184282
6.925,-0.00444,-0.262425,-0.201347
6.945,-0.000588,-0.274712,-0.21827
6.965,0.006392,-0.285312,-0.234003
6.985,0.012538,-0.294574,-0.248437
7.005,0.01567,-0.302612,-0.262821
7.025,0.017,-0.309277,-0.277034
7.045,0.017131,-0.314874,-0.290094
7.065,0.015213,-0.319525,-0.302039
7.085,0.010419,-0.323241,-0.313098
7.105,0.002887,-0.325534,-0.323253
7.125,-0.008135,-0.325298,-0.33152
7.145,-0.022515,-0.322751,-0.337821
7.165,-0.037004,-0.319227,-0.342915
7.185,-0.049646,-0.314635,-0.345319
7.205,-0.063266,-0.30747,-0.345694
7.225,-0.079168,-0.298668,-0.344973
7.245,-0.095712,-0.290032,-0.343266
7.265,-0.109443,-0.281304,-0.343478
7.285,-0.11599,-0.272264,-0.340998
7.305,-0.122858,-0.260924,-0.335318
7.325,-0.132678,-0.250236,-0.329263
7.345,-0.143705,-0.240019,-0.323216
7.365,-0.151868,-0.229935,-0.318295
7.385,-0.156657,-0.21971,-0.313415
7.405,-0.161524,-0.209788,-0.307873
7.425,-0.168216,-0.200417,-0.30237
7.445,-0.175068,-0.19153,-0.297567
7.465,-0.180349,-0.182799,-0.293825
7.485,-0.184029,-0.174273,-0.290425
7.505,-0.187698,-0.166464,-0.286986
7.525,-0.191848,-0.159119,-0.283651
7.545,-0.196414,-0.151577,-0.280789
7.565,-0.201061,-0.143621,-0.278583
7.585,-0.205733,-0.135718,-0.27598
7.605,-0.210818,-0.128115,-0.272799
7.625,-0.216135,-0.120604,-0.269628
