gyro_time_list,gyro_x_list,gyro_y_list,gyro_z_list
0.410000,-4.365721,-3.324652,3.213138
0.430000,-4.365721,-2.971057,3.020619
0.450000,-4.097171,-2.632451,2.859976
0.470000,-3.563352,-2.346235,2.698897
0.490000,-3.025443,-2.145471,2.558301
0.510000,-2.625282,-2.014294,2.425509
0.530000,-2.388938,-1.906872,2.275034
0.550000,-2.283999,-1.791474,2.098057
0.570000,-2.282404,-1.662840,1.867287
0.590000,-2.354841,-1.529126,1.571601
0.610000,-2.442710,-1.397015,1.232397
0.630000,-2.486435,-1.262970,0.852977
0.650000,-2.461813,-1.116319,0.409143
0.670000,-2.391267,-0.946922,-0.124020
0.690000,-2.276557,-0.751085,-0.625956
0.710000,-2.080994,-0.544004,-1.078448
0.730000,-1.776656,-0.355267,-1.476964
0.750000,-1.399538,-0.190234,-1.822366
0.770000,-0.974160,-0.055793,-2.118792
0.790000,-0.482582,0.034439,-2.371907
0.810000,0.016084,0.076602,-2.587721
0.830000,0.491276,0.073085,-2.771926
0.850000,0.929822,0.028577,-2.891883
0.870000,1.324408,-0.045634,-2.883229
0.890000,1.653208,-0.128983,-2.785225
0.910000,1.835633,-0.197030,-2.608079
0.930000,1.879005,-0.252512,-2.362288
0.950000,1.819926,-0.302074,-2.064587
0.970000,1.690367,-0.339742,-1.714929
0.990000,1.520962,-0.361135,-1.295069
1.010000,1.337277,-0.368087,-0.793258
1.030000,1.153985,-0.364806,-0.255670
1.050000,0.971105,-0.355858,0.261019
1.070000,0.781028,-0.339431,0.739910
1.090000,0.556275,-0.309152,1.171076
1.110000,0.251239,-0.278329,1.550994
1.130000,-0.140687,-0.265192,1.880851
1.150000,-0.525707,-0.271600,2.164656
1.170000,-0.893525,-0.306644,2.407714
1.190000,-1.202677,-0.361210,2.615605
1.210000,-1.480938,-0.408287,2.793605
1.230000,-1.746826,-0.445849,2.946418
1.250000,-1.897478,-0.474788,3.047279
1.270000,-1.932919,-0.490195,3.068605
1.290000,-1.928484,-0.491375,3.009115
1.310000,-1.895006,-0.490625,2.897755
1.330000,-1.785424,-0.490102,2.761995
1.350000,-1.604770,-0.485616,2.596658
1.370000,-1.401500,-0.474351,2.377925
1.390000,-1.231610,-0.458731,2.096026
1.410000,-1.108731,-0.445453,1.764519
1.430000,-1.020595,-0.431041,1.368304
1.450000,-0.956999,-0.412508,0.893147
1.470000,-0.902071,-0.391514,0.373324
1.490000,-0.851039,-0.368729,-0.134088
1.510000,-0.818236,-0.342939,-0.611284
1.530000,-0.790967,-0.309049,-1.046510
1.550000,-0.705393,-0.274096,-1.434198
1.570000,-0.570761,-0.239124,-1.773759
1.590000,-0.424203,-0.200458,-2.067900
1.610000,-0.266720,-0.163897,-2.321089
1.630000,-0.091489,-0.131335,-2.538437
1.650000,0.093129,-0.102609,-2.637673
1.670000,0.279558,-0.080795,-2.627563
1.690000,0.461570,-0.064787,-2.539405
1.710000,0.634450,-0.045073,-2.393904
1.730000,0.797592,-0.019579,-2.191826
1.750000,0.938000,0.004801,-1.939706
1.770000,1.016842,0.028625,-1.655957
1.790000,1.003403,0.054462,-1.337620
1.810000,0.906403,0.081525,-0.980758
1.830000,0.757504,0.107177,-0.584209
1.850000,0.582851,0.130133,-0.148758
1.870000,0.403151,0.150601,0.313990
1.890000,0.236106,0.169769,0.749919
1.910000,0.077999,0.189114,1.149386
1.930000,-0.087341,0.206597,1.507643
1.950000,-0.256555,0.217569,1.823935
1.970000,-0.401009,0.219842,2.100235
1.990000,-0.519081,0.220595,2.340063
2.010000,-0.617951,0.231185,2.547585
2.030000,-0.654917,0.246107,2.727040
2.050000,-0.626403,0.259061,2.820234
2.070000,-0.588266,0.268194,2.780582
2.090000,-0.544518,0.272296,2.661962
2.110000,-0.493058,0.268636,2.501242
2.130000,-0.459995,0.255385,2.312595
2.150000,-0.460869,0.234522,2.103546
2.170000,-0.492912,0.210990,1.875512
2.190000,-0.542335,0.188237,1.627016
2.210000,-0.591763,0.167086,1.343721
2.230000,-0.630583,0.147971,1.016639
2.250000,-0.653512,0.129883,0.644780
2.270000,-0.656625,0.114857,0.229690
2.290000,-0.644048,0.105515,-0.222828
2.310000,-0.621835,0.100999,-0.654137
2.330000,-0.599044,0.097586,-1.053644
2.350000,-0.588006,0.096041,-1.415329
2.370000,-0.568332,0.098208,-1.737188
2.390000,-0.525907,0.108381,-2.020168
2.427000,-0.439249,0.127708,-2.267044
2.447000,-0.326982,0.141877,-2.464496
2.467000,-0.199123,0.151411,-2.544645
2.487000,-0.067251,0.156795,-2.531156
2.507000,0.057271,0.156572,-2.455174
2.527000,0.155543,0.154270,-2.331228
2.547000,0.218673,0.158076,-2.158053
2.567000,0.254532,0.167122,-1.939545
2.587000,0.261811,0.179480,-1.685817
2.607000,0.239908,0.194157,-1.393095
2.627000,0.198103,0.210678,-1.047267
2.647000,0.144021,0.229668,-0.643765
2.667000,0.081854,0.251201,-0.184524
2.687000,0.010736,0.273178,0.275684
2.707000,-0.081289,0.294934,0.711071
2.727000,-0.203903,0.313423,1.111566
2.747000,-0.348781,0.322247,1.471919
2.767000,-0.490658,0.313847,1.790911
2.787000,-0.605303,0.294010,2.070160
2.807000,-0.674975,0.275767,2.312937
2.827000,-0.751747,0.263644,2.523263
2.847000,-0.849311,0.255239,2.647861
2.867000,-0.930725,0.250626,2.687932
2.887000,-0.962685,0.250670,2.668469
2.907000,-0.941810,0.254279,2.606399
2.927000,-0.884714,0.258591,2.511733
2.947000,-0.811457,0.260302,2.393833
2.967000,-0.732442,0.260401,2.258520
2.987000,-0.655720,0.262269,2.102022
3.007000,-0.586774,0.267154,1.918457
3.027000,-0.551739,0.273330,1.690066
3.047000,-0.556338,0.277856,1.414003
3.067000,-0.568816,0.279036,1.093278
3.087000,-0.554547,0.280582,0.720473
3.107000,-0.520283,0.281167,0.270041
3.127000,-0.482325,0.278513,-0.176733
3.147000,-0.442442,0.277693,-0.605143
3.167000,-0.388145,0.281717,-1.004196
3.187000,-0.297827,0.288106,-1.367271
3.207000,-0.174662,0.295244,-1.691739
3.227000,-0.029253,0.300257,-1.978006
3.247000,0.137488,0.299588,-2.227380
3.267000,0.317975,0.292926,-2.363129
3.287000,0.492976,0.280392,-2.396123
3.307000,0.630631,0.264988,-2.356144
3.327000,0.702405,0.253793,-2.263402
3.347000,0.711784,0.250638,-2.122138
3.367000,0.694067,0.251775,-1.934822
3.387000,0.673002,0.255377,-1.704627
3.407000,0.641732,0.261669,-1.428739
3.427000,0.587459,0.270804,-1.104989
3.447000,0.506444,0.282326,-0.737369
3.467000,0.405803,0.295636,-0.329762
3.487000,0.296621,0.311280,0.108843
3.507000,0.191107,0.330064,0.543231
3.527000,0.083044,0.348079,0.949037
3.547000,-0.050945,0.363882,1.319021
3.567000,-0.202757,0.375906,1.650093
3.587000,-0.364067,0.384958,1.942380
3.607000,-0.556318,0.391019,2.198124
3.627000,-0.758170,0.394393,2.420718
3.647000,-0.948244,0.395111,2.591866
3.667000,-1.100995,0.392436,2.684643
3.687000,-1.188560,0.385683,2.709663
3.707000,-1.220227,0.376049,2.667971
3.727000,-1.226382,0.365754,2.566155
3.747000,-1.216202,0.357285,2.417307
3.767000,-1.187903,0.352206,2.229857
3.787000,-1.140390,0.350323,2.004080
3.807000,-1.067986,0.350261,1.740170
3.827000,-0.966593,0.351487,1.437660
3.847000,-0.852393,0.353237,1.092237
3.867000,-0.738102,0.355440,0.703898
3.887000,-0.621371,0.357977,0.266610
3.907000,-0.500616,0.360895,-0.194515
3.927000,-0.398954,0.363920,-0.633601
3.947000,-0.330385,0.364909,-1.039713
3.967000,-0.280717,0.367023,-1.406717
3.987000,-0.214296,0.374389,-1.732676
4.007000,-0.098658,0.384282,-2.018699
4.027000,0.062912,0.393172,-2.267758
4.047000,0.245831,0.400736,-2.455546
4.067000,0.432882,0.406229,-2.545367
4.087000,0.610185,0.408594,-2.561639
4.107000,0.767011,0.409006,-2.532415
4.127000,0.890332,0.409205,-2.455321
4.147000,0.944151,0.409813,-2.338476
4.167000,0.934800,0.410596,-2.183058
4.187000,0.893377,0.410602,-1.977519
4.207000,0.830212,0.409949,-1.721025
4.227000,0.736827,0.409086,-1.415374
4.247000,0.613409,0.408504,-1.062467
4.267000,0.467551,0.408793,-0.667586
4.287000,0.312166,0.408714,-0.233377
4.307000,0.160791,0.406221,0.222205
4.327000,0.015651,0.402939,0.655936
4.347000,-0.144963,0.400444,1.057200
4.367000,-0.345655,0.395483,1.420039
4.387000,-0.555305,0.385558,1.742563
4.407000,-0.722696,0.373949,2.025839
4.444000,-0.885521,0.365638,2.272752
4.464000,-1.024280,0.357780,2.433783
4.484000,-1.092288,0.350502,2.466110
4.504000,-1.077678,0.343466,2.392363
4.524000,-1.002960,0.336521,2.259341
4.544000,-0.895161,0.330246,2.091506
4.564000,-0.785809,0.325360,1.896040
4.584000,-0.688771,0.322792,1.660724
4.604000,-0.595401,0.322890,1.380791
4.624000,-0.505754,0.323386,1.056445
4.644000,-0.421308,0.324434,0.678044
4.664000,-0.329702,0.326631,0.230858
4.684000,-0.220738,0.329176,-0.226605
4.704000,-0.096587,0.331719,-0.661655
4.724000,0.034550,0.333477,-1.063707
4.744000,0.165614,0.334030,-1.426898
4.764000,0.297962,0.333973,-1.749445
4.784000,0.444629,0.334244,-2.032522
4.804000,0.601903,0.335490,-2.279103
4.824000,0.759595,0.338091,-2.493024
4.844000,0.916623,0.341236,-2.672271
4.864000,1.066312,0.343852,-2.728344
4.884000,1.200672,0.345651,-2.696040
4.904000,1.313095,0.346897,-2.602628
4.924000,1.393402,0.348998,-2.460307
4.944000,1.429802,0.352256,-2.273148
4.964000,1.424340,0.356230,-2.044706
4.984000,1.371936,0.360462,-1.783070
5.004000,1.263774,0.365000,-1.481935
5.024000,1.103853,0.369745,-1.132223
5.044000,0.914357,0.374136,-0.729817
5.064000,0.717914,0.378029,-0.277161
5.084000,0.525917,0.382125,0.193175
5.104000,0.347481,0.386696,0.639497
5.124000,0.184460,0.391019,1.050808
5.144000,0.030824,0.395015,1.421187
5.164000,-0.161030,0.400404,1.749047
5.184000,-0.417606,0.403787,2.035873
5.204000,-0.682339,0.404329,2.284977
5.224000,-0.941840,0.404959,2.500504
5.244000,-1.094908,0.403439,2.686769
5.264000,-1.146723,0.401672,2.847866
5.284000,-1.201772,0.401627,2.892571
5.304000,-1.275394,0.401239,2.837796
5.324000,-1.311229,0.398691,2.719245
5.344000,-1.280895,0.394279,2.549852
5.364000,-1.203912,0.388566,2.338731
5.384000,-1.107666,0.381523,2.093313
5.404000,-1.005184,0.373281,1.811888
5.424000,-0.871832,0.364317,1.491125
5.444000,-0.692577,0.354029,1.129462
5.464000,-0.494808,0.341421,0.714214
5.484000,-0.287760,0.326130,0.242070
5.504000,-0.029540,0.307566,-0.236490
5.524000,0.278267,0.285612,-0.687532
5.544000,0.586115,0.261140,-1.100537
5.564000,0.859585,0.235630,-1.470318
5.584000,1.141830,0.208687,-1.796045
5.604000,1.419707,0.182245,-2.079849
5.624000,1.678536,0.158828,-2.289110
5.644000,1.904024,0.137029,-2.404716
5.664000,2.035415,0.116735,-2.447666
5.684000,2.113596,0.100347,-2.428291
5.704000,2.177243,0.090487,-2.369043
5.724000,2.216007,0.086238,-2.286071
5.744000,2.208968,0.085089,-2.186271
5.764000,2.153601,0.085564,-2.079402
5.784000,2.052311,0.086732,-1.972928
5.804000,1.908277,0.086721,-1.871885
5.824000,1.753610,0.085065,-1.770076
5.844000,1.626745,0.083667,-1.662021
5.864000,1.531870,0.083811,-1.554822
5.884000,1.424634,0.081697,-1.439562
5.904000,1.311990,0.076834,-1.344021
5.924000,1.211860,0.071976,-1.226109
5.944000,1.128685,0.067319,-1.114469
5.964000,1.058224,0.062732,-1.006460
5.984000,0.993711,0.057144,-0.889027
6.004000,0.931599,0.051772,-0.773797
6.024000,0.877144,0.047170,-0.664548
6.044000,0.832607,0.042557,-0.561094
6.064000,0.792853,0.036793,-0.453232
6.084000,0.760547,0.031271,-0.349456
6.104000,0.740564,0.026528,-0.248953
6.124000,0.723194,0.022813,-0.150868
6.144000,0.698253,0.019274,-0.053215
6.164000,0.667228,0.016249,0.039168
6.184000,0.635467,0.013502,0.122246
6.204000,0.609144,0.011455,0.194585
6.224000,0.581803,0.009165,0.260424
6.244000,0.548728,0.007173,0.319079
6.264000,0.512362,0.005653,0.370605
6.284000,0.477419,0.004331,0.416161
6.304000,0.445286,0.002066,0.457506
6.324000,0.418597,0.000291,0.496025
6.344000,0.399805,-0.002348,0.527398
6.364000,0.385664,-0.004298,0.558120
6.384000,0.367016,-0.005766,0.590738
6.404000,0.340762,-0.007980,0.620760
6.424000,0.313269,-0.010729,0.647925
