gyro_time_list,gyro_x_list,gyro_y_list,gyro_z_list
0.410000,-0.508277,-0.427806,0.689205
0.430000,-0.442061,-0.426740,0.625987
0.450000,-0.367698,-0.442684,0.558601
0.470000,-0.315811,-0.459134,0.482711
0.490000,-0.296222,-0.473528,0.396285
0.510000,-0.301581,-0.487433,0.305566
0.530000,-0.319437,-0.501163,0.218754
0.550000,-0.340505,-0.514003,0.145647
0.570000,-0.357468,-0.526344,0.090178
0.590000,-0.367397,-0.538827,0.050403
0.610000,-0.371636,-0.549370,0.022291
0.630000,-0.372944,-0.554756,0.002192
0.650000,-0.374360,-0.555747,-0.010578
0.670000,-0.379840,-0.552545,-0.017861
0.690000,-0.393575,-0.543936,-0.019608
0.710000,-0.417932,-0.529532,-0.015837
0.730000,-0.451874,-0.510558,-0.008427
0.750000,-0.490021,-0.490548,0.003293
0.770000,-0.528125,-0.470294,0.017455
0.790000,-0.565359,-0.448718,0.033041
0.810000,-0.601531,-0.424454,0.049332
0.830000,-0.636212,-0.397674,0.066956
0.850000,-0.670226,-0.369004,0.086160
0.870000,-0.705281,-0.336363,0.107433
0.890000,-0.742294,-0.302196,0.131429
0.910000,-0.783979,-0.266394,0.157621
0.930000,-0.830278,-0.228742,0.186485
0.950000,-0.880569,-0.194857,0.218284
0.970000,-0.937806,-0.164424,0.250143
0.990000,-1.000705,-0.133287,0.278292
1.010000,-1.058983,-0.100711,0.302268
1.030000,-1.099458,-0.068356,0.326252
1.050000,-1.116233,-0.033017,0.341549
1.070000,-1.081296,-0.007889,0.366668
1.090000,-1.057930,0.015571,0.409543
1.110000,-1.069786,0.037268,0.441229
1.130000,-1.099656,0.058578,0.464573
1.150000,-1.126277,0.077706,0.485770
1.170000,-1.146867,0.094243,0.502173
1.190000,-1.164442,0.107821,0.513015
1.210000,-1.176633,0.119272,0.519344
1.230000,-1.178364,0.128525,0.522432
1.250000,-1.169947,0.135495,0.523828
1.270000,-1.159245,0.141505,0.523651
1.290000,-1.152927,0.147110,0.521075
1.310000,-1.254505,0.124494,0.478948
1.330000,-1.360636,0.109932,0.474704
1.350000,-1.470527,0.096932,0.456868
1.370000,-1.583287,0.064694,0.426634
1.390000,-1.697956,0.045948,0.413002
1.410000,-1.813544,0.146721,0.485105
1.430000,-1.929070,0.181904,0.419936
1.450000,-1.955784,0.208935,0.478808
1.470000,-1.803982,0.213056,0.424741
1.490000,-1.503403,0.202281,0.447149
1.510000,-1.163655,0.173729,0.441458
1.530000,-0.878778,0.152456,0.425035
1.550000,-0.901358,0.140005,0.401219
1.570000,-1.106719,0.136056,0.365350
1.590000,-1.335812,0.136267,0.326191
1.610000,-1.464487,0.135800,0.282184
1.630000,-1.429877,0.134575,0.236500
1.650000,-1.257313,0.131864,0.188313
1.670000,-1.008486,0.128138,0.141773
1.690000,-0.721965,0.124656,0.096633
1.710000,-0.419534,0.123192,0.053952
1.730000,-0.103724,0.122241,0.015713
1.750000,0.230169,0.117989,-0.014508
1.770000,0.579592,0.108587,-0.038546
1.790000,0.921690,0.094907,-0.060962
1.810000,1.219325,0.079414,-0.082345
1.830000,1.440393,0.062742,-0.105349
1.850000,1.585891,0.045789,-0.133004
1.870000,1.685594,0.030310,-0.165675
1.890000,1.759740,0.016261,-0.200513
1.910000,1.803872,0.002693,-0.234481
1.930000,1.808334,-0.010667,-0.267510
1.950000,1.778179,-0.022176,-0.299185
1.970000,1.728116,-0.030777,-0.328107
1.990000,1.670491,-0.035959,-0.352341
2.010000,1.612710,-0.037772,-0.369827
2.030000,1.560682,-0.036426,-0.378041
2.050000,1.517294,-0.033174,-0.376937
2.070000,1.481975,-0.028305,-0.366966
2.090000,1.451461,-0.019703,-0.347654
2.110000,1.421373,-0.007535,-0.320845
2.130000,1.386441,0.007239,-0.286883
2.150000,1.340736,0.025675,-0.246900
2.170000,1.279425,0.046811,-0.204224
2.190000,1.207774,0.068693,-0.161180
2.210000,1.139726,0.089887,-0.117385
2.230000,1.085298,0.109792,-0.074259
2.250000,1.045364,0.129225,-0.031847
2.270000,1.015517,0.149164,0.010519
2.290000,0.991393,0.169309,0.054522
2.310000,0.967643,0.188167,0.102901
2.330000,0.938089,0.204625,0.155837
2.350000,0.898063,0.218558,0.212052
2.370000,0.847603,0.231456,0.265788
2.390000,0.792211,0.242917,0.313167
2.431000,0.740225,0.251765,0.344759
2.451000,0.696637,0.259382,0.366459
2.471000,0.669633,0.265118,0.379688
2.491000,0.666170,0.268568,0.386569
2.511000,0.685830,0.269884,0.388479
2.531000,0.721515,0.269562,0.385526
2.551000,0.764662,0.267730,0.377748
2.571000,0.807965,0.264192,0.365163
2.591000,0.846847,0.258501,0.348109
2.611000,0.877638,0.250443,0.326878
2.631000,0.898347,0.240215,0.301130
2.651000,0.910488,0.227968,0.270663
2.671000,0.917055,0.215003,0.234859
2.691000,0.921469,0.202446,0.193275
2.711000,0.926373,0.188759,0.148073
2.731000,0.932822,0.173476,0.099703
2.751000,0.941792,0.156186,0.048837
2.771000,0.954506,0.137205,-0.004178
2.791000,0.970056,0.118001,-0.059319
2.811000,0.986703,0.098621,-0.115260
2.831000,1.002179,0.078405,-0.171532
2.851000,1.014966,0.058708,-0.229166
2.871000,1.026017,0.041513,-0.287195
2.891000,1.039225,0.025934,-0.342510
2.911000,1.058461,0.008298,-0.390451
2.931000,1.084057,-0.011311,-0.430015
2.951000,1.113331,-0.031230,-0.463050
2.971000,1.143968,-0.051277,-0.491630
2.991000,1.172594,-0.071088,-0.517182
3.011000,1.195419,-0.090993,-0.540362
3.031000,1.208495,-0.110363,-0.561634
3.051000,1.208331,-0.128465,-0.582303
3.071000,1.195249,-0.144126,-0.602553
3.091000,1.173420,-0.156410,-0.621291
3.111000,1.147856,-0.165004,-0.635888
3.131000,1.121964,-0.170830,-0.644123
3.151000,1.097744,-0.173508,-0.644942
3.171000,1.077643,-0.172977,-0.638511
3.191000,1.062695,-0.169386,-0.625212
3.211000,1.050873,-0.162763,-0.604649
3.231000,1.036944,-0.153810,-0.577178
3.251000,1.014817,-0.142011,-0.544861
3.271000,0.981776,-0.125687,-0.507121
3.291000,0.936738,-0.107076,-0.464297
3.311000,0.877276,-0.087488,-0.418576
3.331000,0.803676,-0.064645,-0.370442
3.351000,0.721942,-0.039597,-0.320661
3.371000,0.641057,-0.015409,-0.269746
3.391000,0.569077,0.006528,-0.218515
3.411000,0.509184,0.027257,-0.168301
3.431000,0.459956,0.049081,-0.120299
3.451000,0.419153,0.073523,-0.073195
3.471000,0.383442,0.099057,-0.025090
3.491000,0.347792,0.123223,0.027194
3.511000,0.307011,0.145180,0.083990
3.531000,0.257666,0.165501,0.141478
3.551000,0.200254,0.184364,0.195243
3.571000,0.139391,0.201411,0.242481
3.591000,0.082286,0.216797,0.281898
3.611000,0.035934,0.230444,0.313148
3.631000,0.004026,0.241809,0.337227
3.651000,-0.013804,0.250323,0.355293
3.671000,-0.021911,0.255800,0.368059
3.691000,-0.026802,0.259078,0.374972
3.711000,-0.034476,0.260775,0.376285
3.731000,-0.048877,0.260667,0.372199
3.751000,-0.070072,0.259033,0.363282
3.771000,-0.093694,0.257133,0.349598
3.791000,-0.112856,0.254775,0.332743
3.811000,-0.122679,0.251193,0.314809
3.831000,-0.122517,0.246110,0.295927
3.851000,-0.114138,0.241635,0.274486
3.871000,-0.097161,0.236769,0.250216
3.891000,-0.072903,0.228668,0.224479
3.911000,-0.044280,0.217622,0.196926
3.931000,-0.013169,0.205745,0.165590
3.951000,0.019404,0.192463,0.131401
3.971000,0.051339,0.177473,0.094320
3.991000,0.080989,0.161678,0.053922
4.011000,0.108958,0.145999,0.009609
4.031000,0.138403,0.130924,-0.037585
4.051000,0.172802,0.116357,-0.085538
4.071000,0.215279,0.101761,-0.130878
4.091000,0.267688,0.085795,-0.169614
4.111000,0.328249,0.067073,-0.198547
4.131000,0.391815,0.045903,-0.216852
4.151000,0.452484,0.023426,-0.226830
4.171000,0.505909,0.000654,-0.232527
4.191000,0.549792,-0.021480,-0.236533
4.211000,0.584137,-0.042496,-0.240197
4.231000,0.609400,-0.061947,-0.245057
4.251000,0.626471,-0.079438,-0.251349
4.271000,0.637528,-0.094320,-0.258068
4.291000,0.646547,-0.106316,-0.264103
4.311000,0.657793,-0.115646,-0.268143
4.331000,0.672655,-0.122672,-0.269222
4.351000,0.689093,-0.127791,-0.266889
4.371000,0.703244,-0.130963,-0.262001
4.391000,0.712253,-0.131328,-0.256005
4.411000,0.715045,-0.129579,-0.249395
4.442000,0.707196,-0.125594,-0.243093
4.462000,0.692065,-0.118330,-0.238110
4.482000,0.671234,-0.105915,-0.233747
4.502000,0.647821,-0.091207,-0.228307
4.522000,0.624067,-0.074080,-0.220687
4.542000,0.600818,-0.054089,-0.211216
4.562000,0.581751,-0.032804,-0.200967
4.582000,0.573742,-0.010981,-0.190014
4.602000,0.580562,0.011197,-0.179237
4.622000,0.601079,0.033446,-0.168649
4.642000,0.632560,0.056197,-0.158266
4.662000,0.671736,0.080357,-0.149255
4.682000,0.717631,0.106280,-0.140782
4.702000,0.768847,0.131777,-0.129715
4.722000,0.819789,0.153186,-0.116822
4.742000,0.865831,0.170198,-0.104146
4.762000,0.906123,0.184157,-0.093800
4.782000,0.942050,0.195633,-0.088278
4.802000,0.974712,0.204930,-0.087273
4.822000,1.005770,0.212263,-0.090193
4.842000,1.037751,0.217406,-0.095943
4.862000,1.073302,0.219706,-0.103144
4.882000,1.113968,0.219475,-0.110291
4.902000,1.158300,0.217880,-0.117377
4.922000,1.202733,0.215314,-0.124790
4.942000,1.242684,0.211454,-0.132363
4.962000,1.274813,0.206451,-0.139899
4.982000,1.299376,0.200813,-0.147745
5.002000,1.319463,0.194880,-0.155571
5.022000,1.337960,0.189571,-0.163197
5.042000,1.356604,0.184512,-0.170077
5.062000,1.377486,0.179455,-0.174886
5.082000,1.401849,0.173942,-0.178212
5.102000,1.428827,0.169075,-0.181879
5.122000,1.456848,0.165789,-0.185634
5.142000,1.484655,0.163823,-0.189921
5.162000,1.509998,0.163033,-0.195749
5.182000,1.531410,0.163807,-0.202723
5.202000,1.548028,0.165461,-0.210096
5.222000,1.561957,0.166870,-0.217775
5.242000,1.578419,0.166761,-0.226806
5.262000,1.601774,0.164446,-0.237022
5.282000,1.630913,0.160799,-0.247917
5.302000,1.661691,0.157058,-0.259448
5.322000,1.691073,0.153422,-0.272178
5.342000,1.717064,0.148765,-0.285909
5.365000,1.738397,0.141935,-0.299703
5.385000,1.757555,0.133683,-0.313881
5.405000,1.775842,0.125275,-0.329265
5.425000,1.790923,0.116721,-0.345836
5.445000,1.800099,0.108130,-0.363717
5.465000,1.804093,0.099912,-0.382375
5.485000,1.806314,0.091994,-0.400623
5.505000,1.807771,0.084406,-0.417427
5.525000,1.807687,0.077224,-0.432334
5.545000,1.805854,0.070449,-0.445018
5.565000,1.802838,0.064412,-0.455203
5.585000,1.799044,0.059363,-0.462690
5.605000,1.793916,0.055351,-0.467098
5.625000,1.785838,0.053059,-0.467594
5.645000,1.773497,0.052892,-0.463054
5.665000,1.755145,0.054607,-0.454583
5.685000,1.730067,0.058783,-0.442755
5.705000,1.700993,0.064549,-0.427443
5.725000,1.671223,0.070635,-0.409274
5.745000,1.640798,0.077375,-0.389813
5.765000,1.608831,0.085343,-0.371018
5.785000,1.578033,0.094476,-0.352707
5.805000,1.552180,0.104261,-0.332820
5.825000,1.529132,0.114768,-0.310850
5.845000,1.502832,0.126712,-0.287317
5.865000,1.471040,0.140864,-0.260737
5.885000,1.436417,0.156664,-0.230569
5.905000,1.403093,0.172191,-0.198307
5.925000,1.374655,0.186343,-0.165287
5.945000,1.353203,0.199607,-0.132699
5.965000,1.338253,0.212250,-0.102050
5.985000,1.328280,0.223918,-0.074464
6.005000,1.320217,0.233953,-0.049782
6.025000,1.309476,0.242231,-0.028192
6.045000,1.293238,0.249076,-0.010023
6.065000,1.272622,0.254512,0.004622
6.085000,1.250619,0.258280,0.016674
6.105000,1.228374,0.260235,0.025914
6.125000,1.206384,0.260618,0.032020
6.145000,1.185613,0.259853,0.035405
6.165000,1.166834,0.258076,0.036148
6.185000,1.149895,0.255328,0.034483
6.205000,1.133909,0.251592,0.030878
6.225000,1.117884,0.246368,0.024960
6.245000,1.101157,0.239605,0.016650
6.265000,1.083604,0.232001,0.005198
6.285000,1.065603,0.225199,-0.010010
6.305000,1.049242,0.218052,-0.027842
6.325000,1.036233,0.209235,-0.046497
6.345000,1.027506,0.197496,-0.064605
6.365000,1.021963,0.182938,-0.084029
6.385000,1.017685,0.167668,-0.107101
6.405000,1.012735,0.152472,-0.135184
6.425000,1.005770,0.137198,-0.167355
6.507000,1.000201,0.120250,-0.198996
6.527000,0.998738,0.101403,-0.225325
6.547000,0.999983,0.082072,-0.247335
6.567000,1.002948,0.062042,-0.265210
6.587000,1.004464,0.041247,-0.280873
6.607000,1.000531,0.020518,-0.296114
6.627000,0.989430,0.000788,-0.312597
6.647000,0.971885,-0.017664,-0.331063
6.667000,0.950508,-0.034471,-0.350942
6.687000,0.928310,-0.049325,-0.370926
6.707000,0.907962,-0.061938,-0.389695
6.727000,0.891181,-0.072115,-0.405720
6.747000,0.878435,-0.079841,-0.417202
6.767000,0.869179,-0.085208,-0.422794
6.787000,0.862224,-0.088323,-0.421975
6.807000,0.855779,-0.089397,-0.414780
6.827000,0.847974,-0.088579,-0.402224
6.847000,0.837373,-0.085242,-0.385739
6.867000,0.822972,-0.077637,-0.365409
6.887000,0.804491,-0.066524,-0.340936
6.907000,0.781669,-0.054153,-0.312164
6.927000,0.754024,-0.039761,-0.278811
6.947000,0.722211,-0.022954,-0.241447
6.967000,0.687124,-0.005826,-0.201659
6.987000,0.648879,0.010315,-0.161619
7.007000,0.607783,0.025566,-0.123383
7.027000,0.565132,0.041003,-0.089323
7.047000,0.524131,0.058025,-0.058877
7.067000,0.488106,0.076220,-0.029335
7.087000,0.456934,0.093524,0.001556
7.107000,0.427495,0.109230,0.035873
7.127000,0.395870,0.123816,0.073503
7.147000,0.359062,0.137654,0.111991
7.167000,0.315411,0.150349,0.148987
7.187000,0.264185,0.161622,0.182627
7.207000,0.207522,0.172210,0.212196
7.227000,0.149913,0.182517,0.237473
7.247000,0.095522,0.192207,0.259270
7.267000,0.046557,0.200598,0.278818
7.287000,0.003550,0.207401,0.296771
7.307000,-0.033983,0.213442,0.313232
7.327000,-0.068101,0.219185,0.328154
7.347000,-0.102123,0.224326,0.340961
7.367000,-0.137729,0.229109,0.350875
7.387000,-0.173138,0.233639,0.357758
7.407000,-0.205785,0.237327,0.361367
7.427000,-0.234649,0.239680,0.361394
7.447000,-0.259064,0.241083,0.357089
7.467000,-0.277751,0.242050,0.347936
7.487000,-0.291249,0.240466,0.335143
7.507000,-0.301069,0.236064,0.318701
7.527000,-0.307501,0.227996,0.298868
7.547000,-0.312057,0.216539,0.273986
7.567000,-0.318828,0.203702,0.241559
7.587000,-0.331381,0.190758,0.200254
7.607000,-0.350362,0.177351,0.149619
7.627000,-0.371054,0.163724,0.090973
7.647000,-0.385339,0.149900,0.027133
7.667000,-0.386192,0.134482,-0.037443
7.687000,-0.372374,0.115946,-0.098013
7.707000,-0.348247,0.093979,-0.151702
7.727000,-0.320703,0.070770,-0.198672
7.747000,-0.294890,0.047948,-0.238742
7.767000,-0.273994,0.025631,-0.272427
7.787000,-0.260154,0.003189,-0.301182
7.807000,-0.254689,-0.019456,-0.327062
7.827000,-0.257404,-0.041143,-0.352685
7.847000,-0.265580,-0.060819,-0.379529
7.867000,-0.275205,-0.078339,-0.406983
7.887000,-0.283107,-0.094284,-0.433050
7.907000,-0.287968,-0.109546,-0.455010
7.927000,-0.289716,-0.124335,-0.470886
7.947000,-0.288700,-0.137746,-0.478950
7.967000,-0.285621,-0.148754,-0.477805
7.987000,-0.281588,-0.157422,-0.466839
8.007000,-0.278619,-0.163820,-0.445972
8.027000,-0.278768,-0.167940,-0.415454
8.047000,-0.283257,-0.169952,-0.376304
8.067000,-0.293137,-0.168406,-0.328820
8.087000,-0.308433,-0.162056,-0.271591
8.107000,-0.327850,-0.154749,-0.203500
8.127000,-0.351688,-0.148789,-0.125482
8.147000,-0.379880,-0.141002,-0.040194
8.167000,-0.410147,-0.130995,0.048889
8.187000,-0.440741,-0.119806,0.139901
8.207000,-0.472496,-0.109099,0.232105
8.227000,-0.507429,-0.099874,0.322695
8.247000,-0.545059,-0.092118,0.409427
8.267000,-0.582883,-0.085430,0.491589
8.287000,-0.621016,-0.079984,0.568641
8.307000,-0.664460,-0.075637,0.639711
8.327000,-0.718754,-0.071211,0.701440
8.347000,-0.783890,-0.066919,0.751802
8.367000,-0.855138,-0.063661,0.791637
8.387000,-0.927626,-0.061049,0.821255
8.407000,-0.997750,-0.057758,0.840292
8.427000,-1.060969,-0.052994,0.850739
8.447000,-1.111025,-0.047221,0.856911
8.467000,-1.142271,-0.041282,0.863399
8.487000,-1.154944,-0.035165,0.872029
8.519000,-1.151042,-0.027934,0.883079
8.539000,-1.145101,-0.019852,0.893144
8.559000,-1.141916,-0.010571,0.900040
8.579000,-1.144784,-0.000035,0.902090
8.599000,-1.154010,0.011355,0.898769
8.619000,-1.167300,0.023000,0.891086
8.639000,-1.181843,0.034333,0.880058
8.659000,-1.195175,0.045524,0.865710
8.679000,-1.203697,0.057591,0.847998
8.699000,-1.204223,0.068167,0.828329
8.719000,-1.197518,0.076331,0.805995
8.739000,-1.185043,0.081824,0.778875
8.759000,-1.167606,0.083818,0.745201
8.779000,-1.146948,0.083531,0.702346
8.799000,-1.126443,0.082362,0.648611
8.819000,-1.109711,0.080730,0.584118
8.839000,-1.097874,0.077886,0.511518
8.859000,-1.087939,0.073430,0.433791
8.879000,-1.075408,0.067875,0.354065
8.899000,-1.056585,0.061402,0.275178
8.919000,-1.028660,0.053602,0.200104
8.939000,-0.991099,0.044093,0.131281
8.959000,-0.947102,0.032630,0.068963
8.979000,-0.901303,0.019749,0.011560
8.999000,-0.857216,0.005939,-0.042902
9.019000,-0.816135,-0.008767,-0.096105
9.039000,-0.779029,-0.024699,-0.148403
9.059000,-0.750217,-0.042304,-0.201686
9.079000,-0.733023,-0.060650,-0.257579
9.099000,-0.724957,-0.078517,-0.314963
9.119000,-0.719752,-0.095892,-0.369742
9.139000,-0.712974,-0.113777,-0.416634
9.159000,-0.705293,-0.133410,-0.452506
9.179000,-0.699456,-0.154420,-0.477765
9.199000,-0.696856,-0.175163,-0.492842
9.219000,-0.696734,-0.194812,-0.498666
9.239000,-0.697407,-0.213630,-0.496242
9.259000,-0.699335,-0.228975,-0.482960
9.279000,-0.703175,-0.238778,-0.453815
9.299000,-0.708050,-0.247570,-0.411607
9.319000,-0.715379,-0.256868,-0.358993
9.339000,-0.728407,-0.262858,-0.298895
9.359000,-0.748558,-0.264662,-0.235370
9.379000,-0.776032,-0.263484,-0.169584
9.399000,-0.810060,-0.260328,-0.099253
9.419000,-0.848001,-0.255845,-0.022281
9.439000,-0.885704,-0.250926,0.061752
9.459000,-0.920053,-0.246321,0.155025
9.479000,-0.953873,-0.241844,0.258905
9.499000,-0.993931,-0.235837,0.372260
9.519000,-1.044279,-0.227791,0.490737
9.539000,-1.105140,-0.218984,0.608911
9.559000,-1.174962,-0.210434,0.722286
9.579000,-1.248926,-0.202568,0.827050
9.599000,-1.320368,-0.195594,0.920379
9.619000,-1.383665,-0.188935,1.000093
9.639000,-1.437598,-0.182033,1.063362
9.659000,-1.485318,-0.174292,1.107428
9.679000,-1.530886,-0.165601,1.132264
9.699000,-1.575604,-0.156276,1.141071
9.719000,-1.616512,-0.146671,1.136444
9.739000,-1.648249,-0.137030,1.121839
9.759000,-1.668681,-0.127246,1.101825
9.779000,-1.677752,-0.117215,1.078253
9.799000,-1.677923,-0.107077,1.052467
9.819000,-1.671743,-0.096811,1.025629
9.839000,-1.661229,-0.086396,0.998323
9.859000,-1.648736,-0.075746,0.970995
9.879000,-1.637128,-0.064583,0.943291
9.899000,-1.628326,-0.052771,0.914627
9.919000,-1.622424,-0.040292,0.884725
9.939000,-1.616539,-0.028713,0.854647
9.959000,-1.606696,-0.020348,0.825993
9.979000,-1.590408,-0.015031,0.797670
9.999000,-1.567677,-0.011282,0.766940
10.019000,-1.540909,-0.008844,0.731774
10.039000,-1.513387,-0.008314,0.691487
10.059000,-1.488626,-0.010042,0.646508
10.079000,-1.469683,-0.013828,0.596595
10.099000,-1.457021,-0.018664,0.541720
10.119000,-1.446620,-0.023916,0.483684
10.139000,-1.433342,-0.030298,0.425608
10.159000,-1.415720,-0.038471,0.369940
10.179000,-1.394495,-0.047267,0.316487
10.199000,-1.369757,-0.056029,0.265281
10.219000,-1.341822,-0.065129,0.216867
10.239000,-1.312783,-0.074892,0.171628
10.259000,-1.286140,-0.085051,0.128595
10.279000,-1.264461,-0.095045,0.086284
10.299000,-1.248229,-0.104803,0.043960
10.319000,-1.235935,-0.114121,0.001857
10.339000,-1.225160,-0.122941,-0.038661
10.359000,-1.213565,-0.131313,-0.076126
10.379000,-1.199672,-0.138889,-0.108505
10.399000,-1.183163,-0.145741,-0.134003
10.419000,-1.165035,-0.152169,-0.152135
10.439000,-1.146564,-0.157410,-0.161938
10.459000,-1.128516,-0.161429,-0.163487
10.479000,-1.111019,-0.164016,-0.157144
10.499000,-1.093468,-0.165203,-0.142475
10.531000,-1.073826,-0.164638,-0.114623
10.551000,-1.054791,-0.162398,-0.079698
10.571000,-1.038479,-0.159000,-0.038006
10.591000,-1.027066,-0.153966,0.009901
10.611000,-1.020508,-0.145835,0.064767
10.631000,-1.015951,-0.138042,0.125594
10.651000,-1.012218,-0.132262,0.188963
10.671000,-1.009159,-0.127275,0.248998
10.691000,-1.004324,-0.120983,0.301427
10.711000,-0.992139,-0.113029,0.347678
10.731000,-0.969974,-0.104867,0.390146
10.751000,-0.938944,-0.097811,0.431847
10.771000,-0.905101,-0.092057,0.474369
10.791000,-0.874407,-0.087636,0.515871
10.811000,-0.850950,-0.083563,0.551928
10.831000,-0.834701,-0.079471,0.579133
10.851000,-0.822766,-0.075433,0.596738
10.871000,-0.811917,-0.071416,0.604918
10.891000,-0.798998,-0.067305,0.604596
10.911000,-0.780686,-0.063160,0.597612
10.931000,-0.754472,-0.059404,0.585948
10.951000,-0.719759,-0.056098,0.571227
10.971000,-0.678788,-0.052860,0.553601
10.991000,-0.635372,-0.049374,0.533147
11.011000,-0.592478,-0.045712,0.510019
11.031000,-0.550414,-0.042384,0.484555
11.051000,-0.507662,-0.039554,0.456585
11.071000,-0.462113,-0.037245,0.425438
11.091000,-0.412965,-0.034667,0.389800
11.111000,-0.359340,-0.031246,0.348362
11.131000,-0.298748,-0.028805,0.303135
11.151000,-0.228252,-0.029513,0.256562
11.171000,-0.146167,-0.032860,0.206580
11.191000,-0.052722,-0.038018,0.152265
11.211000,0.047747,-0.044890,0.093304
11.231000,0.147116,-0.053348,0.030233
11.251000,0.234831,-0.062399,-0.038040
11.271000,0.304725,-0.070744,-0.112292
11.291000,0.359053,-0.078040,-0.189781
11.311000,0.404590,-0.085447,-0.265749
11.331000,0.447889,-0.094604,-0.334374
11.351000,0.492278,-0.105051,-0.394779
11.371000,0.540116,-0.115458,-0.447446
11.391000,0.592707,-0.126064,-0.491451
11.411000,0.646388,-0.136792,-0.528003
11.431000,0.694723,-0.147289,-0.557973
11.451000,0.733781,-0.157096,-0.582470
11.471000,0.762819,-0.165667,-0.602421
11.491000,0.783313,-0.172644,-0.617657
11.511000,0.797192,-0.177945,-0.628062
11.531000,0.805051,-0.181623,-0.633363
11.551000,0.806256,-0.183812,-0.632962
11.571000,0.800457,-0.184581,-0.627006
11.591000,0.789202,-0.183618,-0.616106
11.611000,0.774827,-0.180658,-0.600346
11.631000,0.758448,-0.176293,-0.579739
11.651000,0.738704,-0.171100,-0.555494
11.671000,0.712236,-0.163401,-0.527520
11.691000,0.677284,-0.151714,-0.494709
11.711000,0.634264,-0.139031,-0.457736
11.731000,0.584809,-0.124930,-0.417345
11.751000,0.533636,-0.107598,-0.373237
11.771000,0.486711,-0.089575,-0.325795
11.791000,0.447721,-0.073108,-0.276119
11.811000,0.416535,-0.058006,-0.226820
11.831000,0.389574,-0.044043,-0.179831
11.851000,0.359106,-0.030432,-0.136850
11.871000,0.316898,-0.015147,-0.097900
11.891000,0.259879,0.002442,-0.061084
11.911000,0.191831,0.020874,-0.023600
11.931000,0.121445,0.038375,0.018169
11.951000,0.057456,0.053808,0.065347
11.971000,0.004778,0.067797,0.115459
11.991000,-0.035175,0.081058,0.163100
12.011000,-0.062653,0.093440,0.204681
12.031000,-0.079779,0.104990,0.238778
12.051000,-0.092169,0.115405,0.264647
12.071000,-0.107574,0.124288,0.282353
12.091000,-0.130025,0.131482,0.292741
12.111000,-0.158055,0.137225,0.297437
12.131000,-0.188972,0.141900,0.297918
12.151000,-0.221629,0.145549,0.295539
12.171000,-0.254567,0.148292,0.290531
12.191000,-0.283914,0.150182,0.283610
12.211000,-0.306880,0.151430,0.275373
12.231000,-0.324782,0.151763,0.265896
12.251000,-0.339460,0.150977,0.254676
12.271000,-0.351094,0.149761,0.241223
12.291000,-0.358830,0.148926,0.224601
12.311000,-0.362029,0.146103,0.206863
12.331000,-0.360842,0.140204,0.188432
12.351000,-0.354733,0.130389,0.168219
12.371000,-0.344332,0.117366,0.143201
12.391000,-0.332593,0.102973,0.110128
12.411000,-0.323313,0.088076,0.067384
12.431000,-0.320509,0.072281,0.015572
12.451000,-0.324978,0.056139,-0.044167
12.471000,-0.331934,0.040011,-0.109329
12.491000,-0.334739,0.023376,-0.175260
12.511000,-0.329478,0.004645,-0.236026
12.558000,-0.310609,-0.016996,-0.279670
12.578000,-0.291093,-0.038354,-0.317243
12.598000,-0.273933,-0.059979,-0.350187
12.618000,-0.262793,-0.082066,-0.379414
12.638000,-0.260427,-0.103406,-0.407556
12.658000,-0.265927,-0.123000,-0.435183
12.678000,-0.275409,-0.140804,-0.461483
12.698000,-0.284358,-0.157801,-0.484038
12.718000,-0.289893,-0.174835,-0.500619
12.738000,-0.291757,-0.191415,-0.510113
12.758000,-0.290899,-0.206438,-0.511184
12.778000,-0.288135,-0.219914,-0.502753
12.798000,-0.284315,-0.232238,-0.484116
12.818000,-0.281273,-0.244033,-0.455432
12.838000,-0.282036,-0.254804,-0.416299
12.858000,-0.289580,-0.264632,-0.367980
12.878000,-0.305988,-0.271889,-0.311377
12.898000,-0.332126,-0.274500,-0.244583
12.918000,-0.367347,-0.274105,-0.164549
12.938000,-0.411618,-0.275456,-0.069754
12.958000,-0.467233,-0.278954,0.034386
12.978000,-0.533448,-0.280733,0.140779
12.998000,-0.605764,-0.280685,0.243946
13.018000,-0.679511,-0.279647,0.341873
13.038000,-0.754774,-0.278734,0.437231
13.058000,-0.834044,-0.278246,0.530192
13.078000,-0.914255,-0.278727,0.620433
13.098000,-0.989880,-0.280300,0.709929
13.118000,-1.061762,-0.282489,0.797553
13.138000,-1.137323,-0.284332,0.880860
13.158000,-1.222847,-0.284960,0.957783
13.178000,-1.318961,-0.284954,1.026286
13.198000,-1.421611,-0.285350,1.084202
13.218000,-1.525743,-0.286259,1.130104
13.238000,-1.628157,-0.287233,1.163854
13.258000,-1.726608,-0.287989,1.187697
13.278000,-1.819680,-0.288354,1.203773
13.298000,-1.907775,-0.288133,1.214558
13.318000,-1.993214,-0.287391,1.222699
13.338000,-2.079186,-0.286043,1.228229
13.358000,-2.166175,-0.283646,1.230729
13.378000,-2.251029,-0.279521,1.229947
13.398000,-2.328868,-0.273399,1.227586
13.418000,-2.395218,-0.265234,1.225962
13.438000,-2.444598,-0.254914,1.226846
13.458000,-2.470906,-0.242556,1.230663
13.478000,-2.470850,-0.228316,1.237711
13.498000,-2.447539,-0.212492,1.247613
13.518000,-2.406150,-0.194464,1.258401
13.538000,-2.348191,-0.173847,1.268893
13.558000,-2.270931,-0.152373,1.278261
13.578000,-2.171490,-0.132139,1.285233
13.598000,-2.054388,-0.114220,1.286776
13.618000,-1.932018,-0.098453,1.279806
13.638000,-1.819324,-0.083842,1.260908
13.658000,-1.725464,-0.070211,1.228876
13.678000,-1.654792,-0.058676,1.184554
13.698000,-1.605480,-0.050256,1.129728
13.718000,-1.566844,-0.044457,1.066087
13.738000,-1.525044,-0.040394,0.995128
13.758000,-1.469065,-0.039028,0.920579
13.778000,-1.394387,-0.041689,0.844977
13.798000,-1.302463,-0.047064,0.765727
13.818000,-1.196718,-0.053443,0.680281
13.838000,-1.077348,-0.061127,0.588830
13.858000,-0.942847,-0.070957,0.492580
13.878000,-0.798815,-0.082881,0.391931
13.898000,-0.657015,-0.096212,0.287196
13.918000,-0.528633,-0.110330,0.180953
13.938000,-0.419306,-0.125443,0.076857
13.958000,-0.334170,-0.141497,-0.023930
13.978000,-0.278871,-0.157088,-0.121707
13.998000,-0.249744,-0.170969,-0.215474
14.018000,-0.233390,-0.183018,-0.301162
14.038000,-0.217650,-0.193473,-0.375647
14.058000,-0.197557,-0.201629,-0.436310
14.078000,-0.171166,-0.206664,-0.483266
14.098000,-0.136502,-0.208830,-0.514850
14.118000,-0.094360,-0.209315,-0.531172
14.138000,-0.051302,-0.209004,-0.535371
14.158000,-0.017548,-0.206983,-0.534080
14.178000,0.003562,-0.204086,-0.528654
14.198000,0.007250,-0.200119,-0.509634
14.218000,-0.000828,-0.195168,-0.485115
14.238000,-0.006501,-0.188966,-0.456988
14.258000,-0.021328,-0.181535,-0.427247
14.278000,-0.035595,-0.169247,-0.394092
14.298000,-0.034804,-0.154705,-0.358133
14.318000,-0.028351,-0.142186,-0.325512
14.338000,-0.030357,-0.134607,-0.298394
14.358000,-0.042075,-0.131597,-0.279737
14.378000,-0.064920,-0.131726,-0.268895
14.398000,-0.090499,-0.132684,-0.262547
14.418000,-0.113307,-0.133352,-0.257817
14.438000,-0.129946,-0.135411,-0.251759
14.458000,-0.137637,-0.137261,-0.239839
14.478000,-0.137542,-0.138137,-0.215926
14.498000,-0.129978,-0.137494,-0.187468
14.518000,-0.129440,-0.136516,-0.163521
14.538000,-0.136604,-0.135736,-0.155641
