accel_time_list,accel_x_list,accel_y_list,accel_z_list
0.010000,-8.252813,-4.975151,4.584896
0.030000,-8.166622,-4.848258,4.416105
0.050000,-8.110693,-4.562061,4.098148
0.070000,-7.471491,-3.802799,4.001080
0.090000,-7.370098,-3.273324,3.971974
0.110000,-7.463608,-3.007766,3.959885
0.130000,-7.468392,-2.864197,3.950239
0.150000,-7.463075,-2.746029,3.924607
0.170000,-7.494263,-2.668061,3.885344
0.190000,-7.519159,-2.636181,3.846148
0.210000,-7.531928,-2.629942,3.810949
0.230000,-7.555577,-2.625216,3.778547
0.250000,-7.588744,-2.610418,3.750732
0.270000,-7.624898,-2.583824,3.725834
0.290000,-7.664143,-2.545962,3.707680
0.310000,-7.709656,-2.502813,3.695328
0.330000,-7.762049,-2.457762,3.685885
0.350000,-7.821994,-2.413749,3.678049
0.370000,-7.894603,-2.373401,3.669755
0.390000,-7.980304,-2.338863,3.662791
0.410000,-8.072262,-2.309581,3.657432
0.430000,-8.157976,-2.284860,3.654574
0.450000,-8.232574,-2.262663,3.651543
0.470000,-8.291552,-2.240207,3.645193
0.490000,-8.333837,-2.218339,3.635332
0.510000,-8.358930,-2.198877,3.624430
0.530000,-8.374503,-2.183381,3.614421
0.550000,-8.384993,-2.172269,3.602569
0.570000,-8.390766,-2.165802,3.590672
0.590000,-8.395123,-2.161863,3.578977
0.610000,-8.399342,-2.158696,3.567706
0.630000,-8.405787,-2.156304,3.559304
0.650000,-8.411158,-2.151644,3.551636
0.670000,-8.414373,-2.144925,3.546986
0.690000,-8.417082,-2.137574,3.545383
0.710000,-8.418886,-2.130788,3.546434
0.730000,-8.424459,-2.125636,3.550925
0.750000,-8.434048,-2.119139,3.556882
0.770000,-8.442509,-2.109485,3.562214
0.790000,-8.451323,-2.096897,3.567778
0.810000,-8.463704,-2.081001,3.574654
0.830000,-8.478338,-2.062118,3.581743
0.850000,-8.491178,-2.042960,3.588974
0.870000,-8.500935,-2.025866,3.593540
0.890000,-8.508279,-2.011896,3.594717
0.910000,-8.515113,-1.999554,3.596496
0.930000,-8.522210,-1.987675,3.599586
0.950000,-8.527432,-1.974123,3.602756
0.970000,-8.529747,-1.959963,3.605588
0.990000,-8.529283,-1.945383,3.608356
1.010000,-8.525434,-1.929924,3.611309
1.030000,-8.519637,-1.912894,3.614098
1.050000,-8.513263,-1.894095,3.617018
1.070000,-8.508074,-1.874403,3.620342
1.090000,-8.503618,-1.853542,3.623224
1.110000,-8.498948,-1.833035,3.626226
1.130000,-8.494122,-1.813063,3.628856
1.150000,-8.488454,-1.794626,3.631613
1.170000,-8.480396,-1.778104,3.635302
1.190000,-8.467592,-1.763954,3.638742
1.210000,-8.451235,-1.752697,3.640410
1.230000,-8.433926,-1.743108,3.642717
1.250000,-8.419380,-1.735617,3.647844
1.270000,-8.405798,-1.729323,3.657298
1.290000,-8.390677,-1.724038,3.675914
1.310000,-8.374101,-1.718800,3.704181
1.330000,-8.353001,-1.713993,3.736314
1.350000,-8.329618,-1.713109,3.772321
1.370000,-8.308464,-1.720035,3.816478
1.390000,-8.289385,-1.728064,3.870340
1.410000,-8.269920,-1.734602,3.932889
1.430000,-8.245451,-1.742268,4.001694
1.450000,-8.213730,-1.752406,4.074301
1.470000,-8.176482,-1.763372,4.146513
1.490000,-8.135058,-1.772350,4.217179
1.510000,-8.093310,-1.780899,4.293786
1.530000,-8.050034,-1.794236,4.377899
1.550000,-8.003762,-1.814622,4.469100
1.570000,-7.953048,-1.842582,4.566347
1.590000,-7.896310,-1.872346,4.675027
1.610000,-7.837971,-1.901241,4.796988
1.630000,-7.769214,-1.934618,4.905061
1.650000,-7.678936,-1.966921,5.001341
1.670000,-7.576722,-1.999431,5.114868
1.690000,-7.474927,-2.051367,5.227574
1.710000,-7.348117,-2.121400,5.305037
1.730000,-7.246590,-2.165530,5.349974
1.750000,-7.359968,-2.197252,5.325463
1.770000,-7.490567,-2.247890,5.246346
1.790000,-7.320304,-2.308724,5.163703
1.810000,-6.857738,-2.484927,5.256196
1.830000,-6.245299,-2.597484,5.253554
1.850000,-5.797840,-2.581639,5.100148
1.870000,-5.463088,-2.473798,4.931570
1.890000,-5.216053,-2.335832,4.750384
1.910000,-5.153257,-2.223537,4.609952
1.930000,-5.250305,-2.129230,4.443849
1.950000,-5.432704,-1.962500,4.184713
1.970000,-5.643935,-1.652482,3.808488
1.990000,-5.988509,-1.303210,3.221515
2.036000,-6.820673,-1.270464,1.808696
2.056000,-7.541680,-1.245916,-0.677627
2.076000,-12.325444,-3.762403,9.130874
2.096000,-8.695796,6.129136,-3.237919
2.116000,8.321187,16.469643,-0.299546
2.136000,24.053324,1.610932,-7.075569
2.156000,10.525907,-13.693529,-8.320814
2.176000,-0.621153,-14.596087,-1.883184
2.196000,-2.746824,-11.287004,-0.223114
2.216000,-2.250544,-9.068752,1.858337
2.236000,-1.352803,-6.637145,3.999480
2.256000,-0.458083,-4.884323,6.021121
2.276000,0.476598,-3.751191,7.307510
2.296000,0.124769,-4.324139,6.888333
2.316000,-0.260452,-6.355881,5.945255
2.336000,-0.495765,-6.631237,6.258666
2.356000,-0.731732,-5.977768,6.941572
2.376000,-0.725385,-5.998793,7.179383
2.396000,-0.695073,-6.375962,7.150872
2.416000,-0.590805,-6.524051,7.226336
2.436000,-0.459997,-6.450364,7.348033
2.456000,-0.430908,-6.375202,7.456797
2.476000,-0.516840,-6.422490,7.470765
2.496000,-0.567362,-6.523689,7.509936
2.516000,-0.548105,-6.515664,7.541611
2.536000,-0.499412,-6.553730,7.584292
2.556000,-0.456362,-6.592487,7.641246
2.576000,-0.398810,-6.645567,7.627756
2.596000,-0.383538,-6.701923,7.642428
2.616000,-0.384929,-6.676677,7.686108
2.636000,-0.385966,-6.665570,7.722878
2.656000,-0.374350,-6.686686,7.733254
2.676000,-0.359173,-6.698444,7.744558
2.696000,-0.346686,-6.694901,7.768453
2.716000,-0.342029,-6.702737,7.785954
2.736000,-0.317603,-6.691449,7.794759
2.756000,-0.306949,-6.695673,7.815479
2.776000,-0.303230,-6.692208,7.836730
2.796000,-0.294524,-6.691128,7.845189
2.816000,-0.276955,-6.682847,7.854252
2.836000,-0.271495,-6.679014,7.874911
2.856000,-0.267132,-6.672949,7.890261
2.876000,-0.262516,-6.670453,7.895247
2.896000,-0.259603,-6.670823,7.914719
2.916000,-0.257066,-6.678984,7.925868
2.936000,-0.252706,-6.685830,7.935395
2.956000,-0.245016,-6.687593,7.940368
2.976000,-0.232247,-6.680918,7.940876
2.996000,-0.220782,-6.678593,7.949711
3.016000,-0.211214,-6.681756,7.954760
3.036000,-0.201188,-6.683200,7.954728
3.056000,-0.200418,-6.688581,7.964408
3.076000,-0.198071,-6.689730,7.970533
3.096000,-0.191210,-6.696155,7.972457
3.116000,-0.183375,-6.703370,7.974233
3.136000,-0.178902,-6.710272,7.977993
3.156000,-0.175414,-6.713665,7.982134
3.176000,-0.171553,-6.715579,7.984492
3.196000,-0.168155,-6.713180,7.990051
3.216000,-0.167343,-6.713541,7.997389
3.236000,-0.164849,-6.714038,7.999696
3.256000,-0.159617,-6.714907,8.001712
3.276000,-0.152499,-6.704288,8.011126
3.296000,-0.152560,-6.704799,8.022358
3.316000,-0.149790,-6.703104,8.024727
3.336000,-0.147255,-6.698960,8.029460
3.356000,-0.143884,-6.693975,8.035481
3.376000,-0.142970,-6.689028,8.042013
3.396000,-0.140171,-6.682028,8.045238
3.416000,-0.138346,-6.680573,8.051128
3.436000,-0.135056,-6.681023,8.052807
3.456000,-0.131100,-6.677436,8.055564
3.476000,-0.129628,-6.678784,8.059513
3.496000,-0.125682,-6.684348,8.059053
3.516000,-0.121894,-6.690420,8.058970
3.536000,-0.119291,-6.699134,8.059324
3.556000,-0.116577,-6.706026,8.057880
3.576000,-0.114241,-6.710774,8.057476
3.596000,-0.110798,-6.714632,8.054976
3.616000,-0.106762,-6.719683,8.052809
3.636000,-0.105415,-6.723269,8.053560
3.656000,-0.103577,-6.723919,8.054867
3.676000,-0.100117,-6.723546,8.054642
3.696000,-0.098367,-6.724560,8.056912
3.716000,-0.096903,-6.725860,8.060020
3.736000,-0.095780,-6.726195,8.061372
3.756000,-0.092899,-6.724556,8.062585
3.776000,-0.090549,-6.723029,8.065729
3.796000,-0.089164,-6.724513,8.067347
3.816000,-0.087528,-6.724817,8.068890
3.836000,-0.085427,-6.723569,8.070007
3.856000,-0.082879,-6.721845,8.071826
3.876000,-0.081379,-6.722361,8.074069
3.896000,-0.080128,-6.720508,8.076165
3.916000,-0.077552,-6.719987,8.076771
3.936000,-0.075661,-6.722295,8.077453
3.956000,-0.074168,-6.722753,8.078865
3.976000,-0.073205,-6.722044,8.080481
3.996000,-0.071746,-6.723957,8.080831
4.016000,-0.069406,-6.724378,8.081028
4.047000,-0.068897,-6.725247,8.082449
4.067000,-0.067450,-6.727624,8.082566
4.087000,-0.066007,-6.728074,8.082569
4.107000,-0.064240,-6.727128,8.083483
4.127000,-0.062563,-6.728422,8.083994
4.147000,-0.061942,-6.730096,8.084927
4.167000,-0.060352,-6.731224,8.085037
4.187000,-0.058663,-6.732142,8.085780
4.207000,-0.057086,-6.731673,8.087135
4.227000,-0.055722,-6.731552,8.088333
4.247000,-0.054129,-6.732051,8.088787
4.267000,-0.052745,-6.733102,8.089460
4.287000,-0.051740,-6.733980,8.090171
4.307000,-0.050456,-6.734940,8.090169
4.327000,-0.049123,-6.735509,8.090636
4.347000,-0.048622,-6.736657,8.090776
4.367000,-0.047792,-6.736979,8.091663
4.387000,-0.046331,-6.737054,8.091599
4.407000,-0.045245,-6.738853,8.091439
4.427000,-0.044074,-6.740058,8.091545
4.447000,-0.043729,-6.739120,8.092990
4.467000,-0.042861,-6.739677,8.093391
4.487000,-0.041163,-6.741449,8.092759
4.507000,-0.039722,-6.742580,8.092684
4.527000,-0.039181,-6.741546,8.093615
4.547000,-0.038694,-6.742126,8.094105
4.567000,-0.037661,-6.743992,8.093537
4.587000,-0.036326,-6.744787,8.094125
4.607000,-0.035747,-6.745048,8.094754
4.627000,-0.034145,-6.745808,8.094012
4.647000,-0.032702,-6.748093,8.093326
4.667000,-0.031154,-6.748368,8.093747
4.687000,-0.030795,-6.750197,8.093878
4.707000,-0.029697,-6.751241,8.093456
4.727000,-0.028586,-6.752179,8.093230
4.750000,-0.027270,-6.753179,8.092982
4.770000,-0.026447,-6.754217,8.093408
4.790000,-0.025536,-6.754287,8.093470
4.810000,-0.023892,-6.754979,8.093554
4.830000,-0.023055,-6.756047,8.093375
4.850000,-0.022273,-6.757200,8.093102
4.870000,-0.021117,-6.757528,8.093072
4.890000,-0.020235,-6.757924,8.093257
4.910000,-0.019075,-6.759992,8.092746
4.930000,-0.018334,-6.760723,8.092694
4.950000,-0.017384,-6.761350,8.092668
4.970000,-0.016397,-6.762091,8.092257
4.990000,-0.015897,-6.763112,8.092474
5.010000,-0.014900,-6.763453,8.092425
5.030000,-0.013842,-6.764579,8.091539
5.050000,-0.013105,-6.766653,8.091524
5.070000,-0.011920,-6.766718,8.091653
5.090000,-0.011466,-6.766591,8.091613
5.110000,-0.010633,-6.768644,8.090519
5.130000,-0.009425,-6.770198,8.089987
5.150000,-0.008732,-6.770133,8.090633
5.170000,-0.007616,-6.770402,8.090555
5.190000,-0.006917,-6.772106,8.089879
5.210000,-0.005890,-6.773602,8.089282
5.230000,-0.005281,-6.773358,8.089457
5.250000,-0.004749,-6.773548,8.089462
5.270000,-0.003720,-6.775651,8.088845
5.290000,-0.002893,-6.775818,8.088904
5.310000,-0.002097,-6.775648,8.088987
5.330000,-0.001143,-6.777036,8.089069
5.350000,-0.000629,-6.778338,8.088959
5.370000,0.000359,-6.778383,8.089065
5.390000,0.001050,-6.779169,8.088906
5.410000,0.001159,-6.779708,8.089324
5.430000,0.001818,-6.779930,8.089115
5.450000,0.003021,-6.781347,8.088334
5.470000,0.003781,-6.782463,8.088542
5.490000,0.004054,-6.782753,8.088964
5.510000,0.004397,-6.783257,8.088663
5.530000,0.005502,-6.784066,8.087814
5.550000,0.006070,-6.784196,8.088123
5.570000,0.006464,-6.784996,8.088477
5.590000,0.007237,-6.786003,8.087942
5.610000,0.008170,-6.785995,8.087819
5.630000,0.009166,-6.786705,8.088033
5.650000,0.009577,-6.787671,8.088196
5.670000,0.009816,-6.788005,8.087927
5.690000,0.011131,-6.789844,8.086775
5.710000,0.012480,-6.790611,8.086281
5.730000,0.013169,-6.791419,8.086629
5.750000,0.013373,-6.791763,8.085920
5.770000,0.014293,-6.791218,8.085435
5.790000,0.014461,-6.791804,8.085864
5.810000,0.015322,-6.793509,8.083990
5.830000,0.016437,-6.792085,8.082901
5.850000,0.017207,-6.793237,8.083427
5.870000,0.017107,-6.796651,8.084235
5.890000,0.016912,-6.797590,8.084245
5.910000,0.017485,-6.798687,8.084733
5.930000,0.016663,-6.799533,8.086965
5.950000,0.014773,-6.796444,8.089701
5.970000,0.014194,-6.789604,8.091859
5.990000,0.016830,-6.789655,8.091434
6.010000,0.018696,-6.797056,8.087780
6.030000,0.020281,-6.799930,8.084953
6.072000,0.017804,-6.797819,8.089193
6.092000,0.016429,-6.794508,8.092195
6.112000,0.017988,-6.793529,8.091599
6.132000,0.020083,-6.794906,8.090745
6.152000,0.018398,-6.798495,8.093874
6.172000,0.016993,-6.794555,8.095942
6.192000,0.018666,-6.790942,8.096338
6.212000,0.018168,-6.794212,8.097065
6.232000,0.019758,-6.792350,8.097641
6.252000,0.019728,-6.792613,8.098762
6.272000,0.027145,-6.789258,8.095562
6.292000,0.029267,-6.794078,8.095602
6.312000,0.028328,-6.795425,8.098204
6.332000,0.025866,-6.791564,8.101258
6.352000,0.025655,-6.789657,8.102726
6.372000,0.027673,-6.792102,8.104921
6.392000,0.028881,-6.794283,8.105227
6.412000,0.034386,-6.792707,8.104812
6.432000,0.037897,-6.794068,8.103323
6.452000,0.040750,-6.796182,8.104196
6.472000,0.044628,-6.798490,8.101109
6.492000,0.051436,-6.793688,8.100088
6.512000,0.050778,-6.793220,8.103268
6.532000,0.054508,-6.788136,8.103351
6.552000,0.059853,-6.793684,8.099147
6.572000,0.060763,-6.806504,8.096183
6.592000,0.064058,-6.803178,8.094374
6.612000,0.072228,-6.801873,8.090283
6.632000,0.071769,-6.821051,8.093010
6.652000,0.076654,-6.809296,8.092956
6.672000,0.080173,-6.808025,8.094578
6.692000,0.081574,-6.809352,8.096017
6.712000,0.084062,-6.809637,8.095933
6.732000,0.089542,-6.809943,8.097071
6.752000,0.092358,-6.806487,8.099442
6.772000,0.094547,-6.797799,8.100617
6.792000,0.096139,-6.801838,8.103959
6.812000,0.096973,-6.804569,8.104226
6.832000,0.100337,-6.802388,8.104395
6.852000,0.104337,-6.797188,8.107819
6.872000,0.107628,-6.790771,8.111447
6.892000,0.107605,-6.790212,8.113124
6.912000,0.108995,-6.791048,8.114329
6.932000,0.112023,-6.787637,8.117079
6.952000,0.114518,-6.783183,8.119179
6.972000,0.114977,-6.780784,8.120683
6.992000,0.118400,-6.783773,8.122315
7.012000,0.122555,-6.781369,8.124913
7.032000,0.127028,-6.774272,8.127557
7.052000,0.124704,-6.776176,8.128834
7.072000,0.126641,-6.776793,8.131917
7.092000,0.128344,-6.773956,8.133797
7.112000,0.130077,-6.771219,8.135274
7.132000,0.132439,-6.771957,8.136474
7.152000,0.133796,-6.771945,8.137445
7.172000,0.135858,-6.771479,8.138216
7.192000,0.138689,-6.769054,8.139027
7.212000,0.140056,-6.764978,8.141434
7.232000,0.139804,-6.765036,8.142763
7.252000,0.142189,-6.768613,8.142020
7.272000,0.147016,-6.765978,8.142721
7.292000,0.148395,-6.758987,8.149065
7.312000,0.147462,-6.763965,8.151060
7.332000,0.148860,-6.769971,8.150210
7.352000,0.153788,-6.763060,8.152050
7.372000,0.154668,-6.761509,8.155021
7.392000,0.153672,-6.761363,8.156908
7.412000,0.155248,-6.763014,8.157508
7.432000,0.158987,-6.760003,8.158676
7.452000,0.161300,-6.757549,8.160144
7.472000,0.160501,-6.756820,8.162004
7.492000,0.161457,-6.756289,8.163367
7.512000,0.164655,-6.754926,8.165291
7.532000,0.167486,-6.751541,8.166574
7.552000,0.168014,-6.749699,8.168322
7.572000,0.168009,-6.750604,8.169311
7.592000,0.170591,-6.750687,8.170528
7.612000,0.173123,-6.746841,8.172812
7.632000,0.174528,-6.743849,8.174306
7.652000,0.175009,-6.743232,8.176576
7.672000,0.175845,-6.743292,8.178296
7.692000,0.177534,-6.741149,8.179951
7.712000,0.179422,-6.738094,8.181469
7.732000,0.180692,-6.736937,8.183236
7.752000,0.181232,-6.736006,8.185081
7.772000,0.182915,-6.734559,8.186070
7.792000,0.184893,-6.734274,8.187624
7.812000,0.186300,-6.731886,8.189856
7.832000,0.187166,-6.729115,8.191897
7.852000,0.188527,-6.728167,8.192507
7.872000,0.190664,-6.727109,8.194690
7.892000,0.192013,-6.725750,8.196755
7.912000,0.193469,-6.723519,8.198082
7.932000,0.194527,-6.721454,8.200138
7.952000,0.195335,-6.720272,8.202126
7.972000,0.196925,-6.719149,8.203614
7.992000,0.198739,-6.716600,8.205471
8.012000,0.199696,-6.715059,8.208171
8.032000,0.199686,-6.713630,8.210269
8.052000,0.200874,-6.710227,8.212322
