gyro_time_list,gyro_x_list,gyro_y_list,gyro_z_list
1.352,-0.181461,0.057689,0.124571
1.372,-0.170936,0.059554,0.11711
1.392,-0.163383,0.061642,0.107781
1.412,-0.162206,0.064185,0.098514
1.432,-0.168086,0.065977,0.091297
1.452,-0.175144,0.067728,0.08506
1.472,-0.177307,0.071016,0.079135
1.492,-0.173003,0.074968,0.074556
1.512,-0.163968,0.078458,0.069983
1.532,-0.156541,0.081625,0.06441
1.552,-0.152872,0.084449,0.057752
1.572,-0.150251,0.086991,0.050197
1.592,-0.146361,0.088876,0.042399
1.612,-0.14294,0.089611,0.03536
1.632,-0.142887,0.089784,0.028433
1.652,-0.146688,0.090053,0.021326
1.672,-0.15286,0.090668,0.014057
1.692,-0.159698,0.091734,0.006712
1.712,-0.16617,0.093633,0.000468
1.732,-0.171206,0.095811,-0.004611
1.752,-0.175729,0.097905,-0.0095
1.772,-0.181409,0.100297,-0.014183
1.792,-0.186947,0.103138,-0.017768
1.812,-0.189369,0.106137,-0.019695
1.832,-0.188743,0.108981,-0.019746
1.852,-0.188503,0.111515,-0.018277
1.872,-0.190134,0.113939,-0.016039
1.892,-0.193161,0.116491,-0.013443
1.912,-0.197204,0.118963,-0.010727
1.932,-0.202599,0.12124,-0.008182
1.952,-0.209933,0.123696,-0.005585
1.972,-0.21886,0.126388,-0.002567
1.992,-0.228211,0.128969,0.001299
2.012,-0.236959,0.131506,0.006311
2.032,-0.24466,0.134185,0.012277
2.052,-0.251113,0.136958,0.018748
2.072,-0.256865,0.139784,0.025372
2.092,-0.262918,0.142473,0.032118
2.112,-0.269627,0.145059,0.038715
2.132,-0.276903,0.147476,0.044684
2.152,-0.285256,0.149443,0.050029
2.172,-0.295342,0.150682,0.054744
2.192,-0.306909,0.151376,0.058863
2.212,-0.318848,0.1516,0.062495
2.232,-0.330823,0.15148,0.065492
2.252,-0.342605,0.15123,0.068183
2.272,-0.354495,0.150661,0.070569
2.292,-0.367564,0.149351,0.072777
2.312,-0.382409,0.147614,0.075143
2.332,-0.397586,0.145307,0.078109
2.352,-0.412753,0.142027,0.081306
2.372,-0.428319,0.137819,0.084639
2.392,-0.44432,0.133359,0.087662
2.412,-0.459162,0.129527,0.090323
2.432,-0.469517,0.126401,0.092614
2.452,-0.473082,0.123578,0.095222
2.472,-0.470149,0.120264,0.098199
2.492,-0.462717,0.116104,0.101178
2.512,-0.452755,0.112147,0.104097
2.532,-0.441564,0.109393,0.107397
2.552,-0.428875,0.10766,0.11132
2.572,-0.413651,0.105452,0.116224
2.592,-0.397292,0.101459,0.121093
2.612,-0.381601,0.096164,0.124987
2.632,-0.365781,0.090636,0.127171
2.652,-0.349436,0.08566,0.12795
2.672,-0.333449,0.080048,0.127215
2.692,-0.315901,0.073162,0.125606
2.712,-0.294842,0.064587,0.123127
2.732,-0.270989,0.054372,0.120802
2.752,-0.248067,0.042976,0.118969
2.772,-0.229579,0.030207,0.116982
2.792,-0.213875,0.015479,0.113949
2.812,-0.19561,0.000163,0.108304
2.832,-0.172992,-0.013613,0.099097
2.852,-0.146739,-0.02511,0.087707
2.872,-0.120215,-0.035004,0.074019
2.892,-0.093881,-0.045405,0.05784
2.912,-0.067996,-0.057596,0.038701
2.932,-0.046927,-0.073236,0.01336
2.952,-0.034904,-0.093458,-0.020363
2.972,-0.027706,-0.116005,-0.062528
2.992,-0.030605,-0.132262,-0.110281
3.012,-0.059368,-0.124818,-0.150642
3.032,-0.112599,-0.090676,-0.162977
3.052,-0.217355,-0.042903,-0.24394
3.072,-0.247714,-0.050051,-0.341111
3.092,-0.118386,-0.000507,-0.448029
3.112,0.025307,-0.057155,-0.523324
3.132,-0.133998,-0.149473,-0.643782
3.152,-0.306349,-0.241269,-0.682227
3.172,-0.095101,-0.33753,-0.762904
3.192,0.031279,-0.462074,-0.874858
3.212,-0.150297,-0.575963,-0.967885
3.232,-0.385319,-0.61771,-1.010157
3.252,-0.4615,-0.601878,-1.035166
3.272,-0.413169,-0.566237,-1.031203
3.292,-0.490924,-0.524583,-1.026623
3.312,-0.689476,-0.504193,-0.991863
3.332,-0.840362,-0.487129,-0.925548
3.892,-0.844746,-0.48023,-0.893408
3.912,-0.811912,-0.472669,-0.862917
3.932,-0.763514,-0.462011,-0.832084
3.952,-0.720296,-0.446916,-0.799732
3.972,-0.70872,-0.431162,-0.76166
3.992,-0.705399,-0.418364,-0.724377
4.012,-0.69298,-0.40785,-0.69625
4.032,-0.678196,-0.398213,-0.672119
4.052,-0.663094,-0.388779,-0.649129
4.072,-0.64678,-0.378717,-0.627097
4.092,-0.627276,-0.368516,-0.608012
4.112,-0.605492,-0.357209,-0.591729
4.132,-0.576265,-0.344653,-0.578434
4.152,-0.542988,-0.331333,-0.566663
4.172,-0.508643,-0.318091,-0.554541
4.192,-0.477448,-0.305155,-0.541854
4.212,-0.450567,-0.293337,-0.529008
4.232,-0.428168,-0.282843,-0.5145
4.252,-0.409373,-0.273892,-0.501004
4.272,-0.393235,-0.26552,-0.487812
4.292,-0.379908,-0.257612,-0.474667
4.312,-0.36943,-0.250471,-0.461228
4.332,-0.361719,-0.244122,-0.44718
4.352,-0.356251,-0.238322,-0.432936
4.372,-0.352226,-0.232971,-0.419175
4.392,-0.348756,-0.227925,-0.406423
4.412,-0.345339,-0.222943,-0.394487
4.432,-0.341629,-0.218224,-0.383135
4.452,-0.337827,-0.213696,-0.372096
4.472,-0.334045,-0.209436,-0.361409
4.492,-0.330166,-0.205479,-0.351128
4.512,-0.325596,-0.201731,-0.341419
4.532,-0.320634,-0.19798,-0.332364
4.552,-0.315152,-0.194134,-0.324234
4.572,-0.308978,-0.190359,-0.317073
4.592,-0.302042,-0.186483,-0.310591
4.612,-0.294573,-0.182411,-0.304418
4.632,-0.287329,-0.178419,-0.298519
4.652,-0.280952,-0.174633,-0.292896
4.672,-0.275666,-0.171037,-0.287422
4.692,-0.271126,-0.167532,-0.28192
4.712,-0.266756,-0.164007,-0.276332
4.732,-0.262117,-0.16065,-0.271036
4.752,-0.257098,-0.157296,-0.266125
4.772,-0.251745,-0.153868,-0.261674
4.792,-0.24633,-0.150504,-0.257503
4.812,-0.241123,-0.14724,-0.253297
4.832,-0.236445,-0.144273,-0.2489
4.852,-0.232434,-0.141523,-0.244325
4.872,-0.229077,-0.138892,-0.239702
4.892,-0.226276,-0.136328,-0.23516
4.912,-0.22373,-0.133932,-0.230778
4.932,-0.221036,-0.131659,-0.22648
4.952,-0.218186,-0.129334,-0.222152
4.972,-0.215394,-0.127037,-0.217953
4.992,-0.212823,-0.124819,-0.21395
5.012,-0.210373,-0.122738,-0.210143
5.032,-0.207883,-0.120774,-0.206549
5.052,-0.205361,-0.118807,-0.203034
5.072,-0.202791,-0.116798,-0.199685
5.092,-0.200126,-0.114822,-0.196535
5.112,-0.197418,-0.112881,-0.193585
5.132,-0.194649,-0.110972,-0.190848
5.152,-0.191879,-0.109024,-0.18822
5.172,-0.189213,-0.107122,-0.185709
5.192,-0.186721,-0.105297,-0.183195
5.212,-0.184369,-0.103528,-0.180585
5.232,-0.182156,-0.101773,-0.177958
5.252,-0.18019,-0.100022,-0.175427
5.272,-0.178328,-0.098335,-0.173137
5.292,-0.176376,-0.096658,-0.170945
5.312,-0.174387,-0.095018,-0.168705
5.332,-0.172539,-0.093448,-0.166405
5.352,-0.170889,-0.091946,-0.164094
5.372,-0.169384,-0.090468,-0.161774
5.392,-0.167981,-0.089095,-0.159517
5.412,-0.166684,-0.087786,-0.157316
5.432,-0.165339,-0.08653,-0.155193
5.452,-0.163887,-0.08525,-0.153089
5.472,-0.162396,-0.084019,-0.151037
5.492,-0.160922,-0.082794,-0.149044
5.512,-0.15949,-0.081542,-0.147142
5.532,-0.158102,-0.080316,-0.14535
5.552,-0.156658,-0.079124,-0.143652
5.572,-0.155077,-0.077949,-0.14203
5.592,-0.153381,-0.076754,-0.140447
5.612,-0.15174,-0.075582,-0.138925
5.632,-0.150271,-0.074416,-0.137436
5.652,-0.148943,-0.073289,-0.135966
5.672,-0.147643,-0.072235,-0.134529
5.692,-0.146355,-0.071217,-0.133094
5.712,-0.145083,-0.070188,-0.131662
5.732,-0.143889,-0.06919,-0.130232
5.752,-0.142802,-0.068265,-0.128782
5.772,-0.141725,-0.06736,-0.1272
5.792,-0.140644,-0.066482,-0.125583
5.812,-0.139692,-0.065616,-0.12404
5.832,-0.138849,-0.064717,-0.122712
5.852,-0.137919,-0.063797,-0.121519
5.872,-0.136833,-0.062871,-0.120353
6.578,-0.13556,-0.062072,-0.118944
6.598,-0.134425,-0.061355,-0.117291
6.618,-0.133732,-0.060779,-0.11537
6.638,-0.133739,-0.060486,-0.113247
6.658,-0.134446,-0.060435,-0.110769
6.678,-0.135872,-0.060548,-0.108002
6.698,-0.138572,-0.060767,-0.10477
6.718,-0.141034,-0.06076,-0.103011
6.738,-0.137113,-0.059771,-0.104385
6.758,-0.129098,-0.057836,-0.102214
6.778,-0.119759,-0.056265,-0.101687
6.798,-0.112455,-0.054561,-0.101224
6.818,-0.108206,-0.052957,-0.100408
6.838,-0.107481,-0.052115,-0.099031
6.858,-0.109855,-0.051719,-0.09743
6.878,-0.11253,-0.051344,-0.096311
6.898,-0.113667,-0.050696,-0.095504
6.918,-0.112817,-0.049785,-0.09472
6.938,-0.110513,-0.04872,-0.093915
6.958,-0.107718,-0.047615,-0.093196
6.978,-0.105565,-0.046647,-0.092456
6.998,-0.104672,-0.045978,-0.091612
7.018,-0.104715,-0.045453,-0.090691
7.038,-0.105057,-0.044916,-0.089814
7.058,-0.105169,-0.044281,-0.089085
7.078,-0.104743,-0.043564,-0.088407
7.098,-0.103774,-0.042765,-0.087748
7.118,-0.102553,-0.04192,-0.087208
7.138,-0.101402,-0.041066,-0.086748
7.158,-0.100454,-0.040269,-0.086234
7.178,-0.09967,-0.039576,-0.085556
7.198,-0.099051,-0.038897,-0.084647
7.218,-0.098672,-0.038209,-0.083699
7.238,-0.098538,-0.03755,-0.08292
7.258,-0.098516,-0.036984,-0.082236
7.278,-0.098422,-0.03646,-0.081565
7.298,-0.098148,-0.035901,-0.080923
7.318,-0.097668,-0.035302,-0.080349
7.338,-0.097061,-0.034681,-0.07982
7.358,-0.096423,-0.034101,-0.07925
7.378,-0.095755,-0.033511,-0.078573
7.398,-0.095172,-0.032935,-0.077865
7.418,-0.094713,-0.03236,-0.077254
7.438,-0.094321,-0.031758,-0.076684
7.458,-0.093882,-0.031147,-0.076048
7.478,-0.093413,-0.030553,-0.075438
7.498,-0.092965,-0.029927,-0.074947
7.518,-0.092541,-0.02932,-0.074503
7.538,-0.092167,-0.028771,-0.073932
7.558,-0.091793,-0.028219,-0.073268
7.578,-0.091482,-0.027711,-0.072618
7.598,-0.091331,-0.02723,-0.071979
7.618,-0.091254,-0.026783,-0.071334
7.638,-0.091139,-0.026364,-0.070729
7.658,-0.09167,-0.02607,-0.070188
7.678,-0.0926,-0.025903,-0.069725
7.698,-0.093551,-0.025696,-0.069167
7.718,-0.093689,-0.025348,-0.068561
7.738,-0.092794,-0.024839,-0.067879
7.758,-0.091466,-0.024283,-0.06713
7.778,-0.089888,-0.023669,-0.066417
7.798,-0.088849,-0.023102,-0.065793
7.818,-0.08853,-0.022653,-0.065319
7.838,-0.088641,-0.022242,-0.064822
7.858,-0.088685,-0.021832,-0.064335
7.878,-0.088396,-0.021383,-0.063906
7.898,-0.087589,-0.020826,-0.063424
7.918,-0.086531,-0.020254,-0.06297
7.938,-0.085606,-0.019753,-0.062557
7.958,-0.085041,-0.019311,-0.062201
7.978,-0.08485,-0.018932,-0.061858
7.998,-0.084808,-0.018632,-0.061586
8.018,-0.084677,-0.018335,-0.061478
8.038,-0.084215,-0.018041,-0.061676
8.058,-0.083334,-0.017605,-0.061765
8.078,-0.082002,-0.017028,-0.061579
8.098,-0.080551,-0.016405,-0.061071
8.118,-0.079439,-0.015833,-0.060411
8.138,-0.07878,-0.015376,-0.059858
8.158,-0.078579,-0.014976,-0.059174
8.178,-0.07857,-0.014604,-0.058544
8.198,-0.078641,-0.014256,-0.057876
8.218,-0.078602,-0.013934,-0.057253
8.238,-0.078497,-0.013609,-0.056535
8.258,-0.078435,-0.013279,-0.055823
8.278,-0.078394,-0.012922,-0.055194
8.298,-0.07836,-0.012516,-0.054561
8.318,-0.078377,-0.012031,-0.053801
8.338,-0.078565,-0.011615,-0.053179
8.358,-0.078969,-0.011299,-0.052533
8.378,-0.079329,-0.010989,-0.051914
8.398,-0.07945,-0.01061,-0.051383
8.418,-0.079176,-0.010134,-0.050868
8.438,-0.078675,-0.009683,-0.050393
8.458,-0.078175,-0.009331,-0.050038
8.478,-0.077859,-0.009037,-0.049715
8.498,-0.077764,-0.008745,-0.049299
8.518,-0.077743,-0.008493,-0.048868
8.538,-0.077581,-0.00822,-0.04848
8.558,-0.077151,-0.00791,-0.048164
