accel_time_list,accel_x_list,accel_y_list,accel_z_list
0.310000,-5.861006,-0.311246,5.406107
0.330000,-6.420052,-0.153229,5.371391
0.350000,-6.897418,0.009125,5.210506
0.370000,-7.374254,0.038122,4.957314
0.390000,-7.915427,-0.056181,4.654266
0.410000,-8.574605,-0.227399,4.367648
0.430000,-9.336583,-0.439456,4.117469
0.450000,-10.140285,-0.692828,3.907815
0.470000,-10.925484,-1.019503,3.746782
0.490000,-11.635486,-1.402699,3.637095
0.510000,-12.220227,-1.829491,3.567690
0.530000,-12.632561,-2.266262,3.516609
0.550000,-12.828875,-2.672772,3.462230
0.570000,-12.879507,-3.062181,3.407403
0.590000,-12.855004,-3.412641,3.373253
0.610000,-12.771387,-3.711964,3.362014
0.630000,-12.626209,-3.962378,3.364393
0.650000,-12.437548,-4.162078,3.365212
0.670000,-12.221360,-4.324397,3.360043
0.690000,-11.984227,-4.460425,3.355164
0.710000,-11.727551,-4.581189,3.350531
0.730000,-11.458930,-4.696276,3.351861
0.750000,-11.192337,-4.804717,3.359219
0.770000,-10.939138,-4.893762,3.370884
0.790000,-10.705492,-4.951186,3.391188
0.810000,-10.498535,-4.984903,3.413733
0.830000,-10.322005,-5.001791,3.435948
0.850000,-10.178545,-5.008973,3.460238
0.870000,-10.072612,-5.009291,3.485010
0.890000,-10.003202,-5.009687,3.517941
0.910000,-9.961304,-5.002541,3.559484
0.930000,-9.938375,-4.982217,3.596087
0.950000,-9.928963,-4.949081,3.625381
0.970000,-9.925808,-4.910063,3.659185
0.990000,-9.925936,-4.865627,3.706065
1.010000,-9.928740,-4.802002,3.751100
1.030000,-9.933424,-4.728093,3.786938
1.050000,-9.939135,-4.660441,3.832052
1.070000,-9.941057,-4.596680,3.890038
1.090000,-9.936935,-4.530150,3.942818
1.110000,-9.924404,-4.460759,3.987266
1.130000,-9.891796,-4.390161,4.039328
1.150000,-9.843197,-4.346930,4.112561
1.170000,-9.797981,-4.355247,4.180098
1.190000,-9.749059,-4.355918,4.243944
1.210000,-9.675146,-4.324237,4.310195
1.230000,-9.581121,-4.274370,4.395184
1.250000,-9.484032,-4.215617,4.498148
1.270000,-9.370400,-4.148190,4.596622
1.290000,-9.223186,-4.086156,4.676678
1.310000,-9.047291,-4.054053,4.747526
1.330000,-8.866148,-4.053216,4.825038
1.350000,-8.679552,-4.042078,4.905609
1.370000,-8.462618,-4.003636,4.975802
1.390000,-8.213302,-3.952597,5.034794
1.410000,-7.926981,-3.884589,5.093669
1.430000,-7.601390,-3.797199,5.146005
1.450000,-7.237989,-3.705336,5.187011
1.470000,-6.847203,-3.624340,5.212256
1.490000,-6.455900,-3.553008,5.236279
1.510000,-6.071901,-3.500465,5.258443
1.530000,-5.653578,-3.475182,5.255123
1.550000,-5.195461,-3.451652,5.244234
1.570000,-4.699152,-3.411028,5.236213
1.590000,-4.186899,-3.368932,5.221629
1.610000,-3.615480,-3.331625,5.173280
1.630000,-3.176603,-3.338192,5.080291
1.650000,-3.283953,-3.355680,5.007692
1.670000,-3.474029,-3.275343,4.927439
1.690000,-3.305584,-3.151795,4.849569
1.710000,-2.826048,-3.075510,4.758218
1.730000,-2.414905,-3.093998,4.677705
1.750000,-2.184751,-3.121047,4.651770
1.770000,-1.971843,-3.147637,4.642255
1.790000,-1.727173,-3.193901,4.563708
1.810000,-1.586673,-3.215151,4.374695
1.830000,-1.831424,-3.163922,4.182606
1.850000,-2.408293,-3.078461,4.075895
1.870000,-2.946792,-2.972854,3.941725
1.890000,-3.166185,-2.817667,3.727926
1.910000,-4.593379,-2.916472,4.395097
1.930000,-10.937952,-4.434727,4.695066
1.950000,3.722857,-2.648545,3.556481
1.970000,8.972878,0.776045,2.626036
1.990000,1.346334,-3.579370,2.783164
2.010000,-1.750293,-6.684298,4.260129
2.030000,-0.163008,-2.324549,4.574455
2.050000,-0.297713,-2.819436,5.282947
2.070000,-0.389393,-5.178471,5.291566
2.090000,-0.231502,-4.139871,5.552454
2.110000,-0.199581,-3.877700,6.083446
2.130000,-0.084060,-3.843917,6.514468
2.150000,0.194514,-3.814373,6.671430
2.170000,0.381671,-4.173853,6.738546
2.190000,0.431020,-4.524658,6.859984
2.210000,0.528681,-4.318249,7.057040
2.230000,0.503828,-3.943927,7.376091
2.250000,0.420901,-3.875525,7.587823
2.270000,0.375759,-4.058974,7.671516
2.290000,0.344611,-4.208887,7.762574
2.327000,0.308132,-4.247977,7.908689
2.347000,0.294829,-4.136589,8.048811
2.367000,0.294411,-3.930859,8.222232
2.387000,0.307518,-3.831521,8.341968
2.407000,0.333859,-3.902567,8.407673
2.427000,0.362172,-4.048301,8.446945
2.447000,0.372172,-4.138906,8.493927
2.467000,0.363784,-4.129820,8.566629
2.487000,0.349403,-4.080244,8.647574
2.507000,0.343753,-4.043729,8.709860
2.527000,0.337694,-4.053084,8.764380
2.547000,0.329189,-4.119403,8.808084
2.567000,0.331067,-4.151076,8.846207
2.587000,0.335596,-4.124214,8.891745
2.607000,0.343083,-4.073611,8.943776
2.627000,0.336738,-4.055339,8.994921
2.647000,0.337531,-4.070768,9.026735
2.667000,0.352240,-4.083074,9.045520
2.687000,0.361133,-4.087502,9.072909
2.707000,0.356636,-4.085076,9.108559
2.727000,0.350880,-4.074147,9.142826
2.747000,0.348239,-4.057665,9.176729
2.767000,0.342423,-4.064351,9.207621
2.787000,0.343120,-4.081093,9.226049
2.807000,0.354783,-4.072793,9.243064
2.827000,0.356527,-4.039299,9.270263
2.847000,0.344599,-4.033106,9.310040
2.867000,0.337477,-4.062395,9.326921
2.887000,0.351719,-4.093546,9.325625
2.907000,0.354623,-4.088506,9.346169
2.927000,0.340925,-4.063113,9.385454
2.947000,0.340367,-4.046129,9.407527
2.967000,0.349072,-4.038015,9.422222
2.987000,0.340780,-4.044308,9.441795
3.007000,0.333618,-4.047565,9.465699
3.027000,0.338181,-4.044280,9.474694
3.047000,0.345795,-4.031040,9.486091
3.067000,0.345101,-4.032320,9.503058
3.087000,0.342878,-4.038533,9.510382
3.107000,0.354628,-4.003074,9.524318
3.127000,0.353388,-3.982336,9.551661
3.147000,0.348515,-3.999603,9.563284
3.167000,0.352818,-4.016631,9.561192
3.187000,0.360538,-3.996033,9.563707
3.207000,0.363727,-3.971698,9.599588
3.227000,0.352045,-3.998548,9.620131
3.247000,0.345450,-4.003551,9.612752
3.267000,0.345479,-3.961153,9.630013
3.287000,0.334699,-3.930622,9.662990
3.307000,0.333145,-3.895102,9.678872
3.327000,0.335427,-3.871305,9.683273
3.347000,0.350809,-3.865819,9.683807
3.367000,0.334844,-3.877845,9.698598
3.387000,0.341029,-3.898324,9.678230
3.407000,0.365474,-3.934910,9.672456
3.427000,0.375883,-3.965691,9.690832
3.447000,0.366032,-3.980721,9.698350
3.467000,0.376617,-3.980192,9.710360
3.487000,0.386505,-3.972289,9.718323
3.507000,0.379972,-3.968112,9.735531
3.527000,0.377665,-3.955993,9.743812
3.547000,0.386964,-3.933709,9.753123
3.567000,0.390131,-3.922478,9.767093
3.587000,0.389678,-3.938618,9.772157
3.607000,0.402242,-3.939241,9.755381
3.627000,0.414284,-3.898649,9.771296
3.647000,0.394973,-3.875828,9.805196
3.667000,0.391869,-3.886105,9.815141
3.687000,0.406072,-3.921999,9.804440
3.707000,0.426239,-3.934836,9.799245
3.727000,0.420656,-3.922054,9.814970
3.747000,0.422331,-3.909200,9.830470
3.767000,0.426986,-3.902343,9.839548
3.787000,0.433581,-3.881294,9.845624
3.807000,0.435933,-3.857156,9.859086
3.827000,0.439917,-3.842232,9.868283
3.847000,0.449742,-3.825392,9.867200
3.867000,0.457155,-3.804961,9.874229
3.887000,0.460211,-3.801549,9.885100
3.907000,0.467234,-3.808230,9.886168
3.927000,0.479964,-3.797539,9.878468
3.947000,0.485507,-3.772424,9.890850
3.967000,0.479639,-3.764503,9.909436
3.987000,0.484316,-3.771120,9.913895
4.007000,0.496013,-3.776280,9.908715
4.027000,0.499958,-3.777646,9.913223
4.047000,0.500611,-3.775190,9.924725
4.067000,0.505729,-3.772343,9.929436
4.087000,0.511553,-3.764079,9.932727
4.107000,0.514658,-3.750282,9.942531
4.127000,0.517357,-3.742682,9.951758
4.147000,0.523598,-3.738183,9.955441
4.167000,0.527659,-3.727234,9.959606
4.187000,0.532500,-3.711386,9.968180
4.207000,0.537635,-3.697361,9.975189
4.227000,0.542868,-3.680021,9.980977
4.247000,0.547083,-3.667190,9.987132
4.267000,0.550949,-3.660415,9.993252
4.287000,0.557203,-3.656614,9.997983
4.307000,0.561358,-3.649206,10.001151
4.409000,0.566177,-3.635324,10.006259
4.429000,0.569784,-3.625519,10.014871
4.449000,0.574157,-3.620467,10.019833
4.469000,0.578867,-3.612366,10.022494
4.489000,0.583420,-3.604616,10.027163
4.509000,0.587665,-3.599547,10.032932
4.529000,0.588922,-3.596443,10.038735
4.549000,0.595253,-3.589007,10.041121
4.569000,0.600040,-3.578345,10.044318
4.589000,0.602711,-3.569675,10.050893
4.609000,0.603704,-3.567510,10.057137
4.629000,0.607857,-3.565514,10.058753
4.649000,0.612915,-3.559824,10.060983
4.669000,0.615574,-3.550039,10.066959
4.689000,0.616532,-3.542682,10.073288
4.709000,0.619488,-3.539855,10.076238
4.729000,0.623660,-3.537089,10.077820
4.749000,0.627599,-3.530267,10.081421
4.769000,0.629200,-3.523002,10.086992
4.789000,0.632174,-3.518415,10.090551
4.809000,0.635500,-3.515030,10.092571
4.829000,0.638555,-3.507766,10.095864
4.849000,0.640836,-3.501555,10.100801
4.869000,0.643622,-3.499657,10.104115
4.889000,0.647528,-3.496393,10.105665
4.909000,0.650271,-3.489787,10.109024
4.929000,0.652291,-3.484381,10.112934
4.949000,0.654675,-3.482013,10.116248
4.969000,0.657561,-3.480400,10.118762
4.989000,0.661640,-3.475176,10.121507
5.009000,0.665079,-3.470350,10.124583
5.029000,0.667215,-3.466866,10.128514
5.049000,0.669138,-3.463725,10.131496
5.069000,0.671521,-3.459730,10.134425
5.089000,0.674717,-3.455778,10.136798
5.109000,0.677092,-3.453369,10.139865
5.129000,0.678749,-3.450929,10.143356
5.149000,0.681921,-3.447255,10.145400
5.169000,0.685612,-3.443545,10.147327
5.189000,0.688261,-3.440455,10.150146
5.209000,0.689974,-3.437587,10.153582
5.229000,0.692364,-3.434024,10.156362
5.249000,0.695855,-3.431216,10.158276
5.269000,0.698258,-3.429105,10.160889
5.289000,0.700325,-3.426346,10.164194
5.309000,0.702851,-3.422249,10.167130
5.329000,0.705782,-3.418577,10.168817
5.349000,0.708134,-3.416760,10.170918
5.369000,0.710629,-3.415058,10.173906
5.389000,0.713291,-3.411865,10.176698
5.409000,0.715879,-3.408463,10.179294
5.429000,0.718608,-3.406533,10.181553
5.449000,0.720807,-3.404287,10.183909
5.469000,0.724038,-3.402087,10.186050
5.489000,0.726374,-3.399813,10.188218
5.509000,0.729094,-3.397011,10.190364
5.529000,0.731452,-3.393591,10.192513
5.549000,0.733906,-3.391355,10.194807
5.569000,0.736143,-3.390146,10.196982
5.589000,0.738550,-3.387920,10.199327
5.609000,0.740670,-3.384854,10.201745
5.629000,0.742984,-3.383231,10.203803
5.649000,0.745394,-3.381912,10.205745
5.669000,0.747804,-3.379577,10.207620
5.689000,0.750310,-3.376738,10.209044
5.709000,0.752862,-3.374526,10.210910
5.729000,0.754815,-3.373079,10.213236
5.749000,0.756843,-3.371334,10.215132
5.769000,0.759163,-3.368985,10.216673
5.789000,0.761651,-3.366922,10.218534
5.809000,0.764114,-3.365503,10.220569
5.829000,0.765954,-3.364074,10.222510
5.849000,0.768302,-3.362252,10.223667
5.869000,0.771058,-3.360233,10.225387
5.889000,0.773235,-3.358857,10.227615
5.909000,0.775032,-3.357327,10.229798
5.929000,0.776811,-3.355237,10.231002
5.949000,0.779026,-3.353168,10.232792
5.969000,0.780837,-3.351839,10.234995
5.989000,0.783228,-3.350618,10.236673
6.009000,0.785523,-3.348859,10.237712
6.029000,0.787508,-3.347955,10.238908
6.049000,0.789281,-3.346199,10.241193
6.069000,0.791516,-3.344388,10.243599
6.089000,0.793800,-3.343123,10.244425
6.109000,0.796085,-3.340936,10.245865
6.129000,0.798300,-3.339609,10.247866
6.149000,0.799942,-3.337768,10.249870
6.169000,0.801830,-3.337263,10.250921
6.189000,0.803508,-3.335422,10.251986
6.209000,0.805936,-3.334126,10.253661
6.229000,0.808124,-3.331574,10.255009
6.249000,0.809787,-3.329718,10.256750
6.269000,0.811434,-3.327905,10.258378
6.289000,0.813590,-3.324841,10.259942
6.309000,0.815654,-3.322166,10.261897
6.329000,0.817864,-3.322799,10.262779
6.349000,0.819550,-3.322443,10.263964
6.369000,0.821649,-3.320559,10.265017
6.389000,0.823871,-3.318334,10.266203
