gyro_time_list,gyro_x_list,gyro_y_list,gyro_z_list
0.010000,0.408000,-0.074000,0.203000
0.030000,0.422000,-0.076000,0.203000
0.050000,0.425000,-0.061000,0.219000
0.070000,0.396000,-0.040000,0.227000
0.090000,0.349000,-0.015000,0.227000
0.110000,0.292000,0.010000,0.229000
0.130000,0.244000,0.028000,0.231000
0.150000,0.207000,0.036000,0.237000
0.170000,0.170000,0.039000,0.246000
0.190000,0.130000,0.050000,0.257000
0.210000,0.097000,0.065000,0.272000
0.230000,0.075000,0.086000,0.288000
0.250000,0.066000,0.120000,0.316000
0.270000,0.057000,0.174000,0.349000
0.290000,0.028000,0.249000,0.396000
0.310000,-0.020000,0.335000,0.451000
0.330000,-0.076000,0.427000,0.513000
0.350000,-0.135000,0.532000,0.584000
0.370000,-0.198000,0.654000,0.661000
0.390000,-0.267000,0.791000,0.744000
0.410000,-0.342000,0.942000,0.833000
0.430000,-0.422000,1.102000,0.925000
0.450000,-0.505000,1.265000,1.021000
0.470000,-0.597000,1.433000,1.117000
0.490000,-0.704000,1.608000,1.210000
0.510000,-0.826000,1.782000,1.299000
0.530000,-0.959000,1.943000,1.383000
0.550000,-1.095000,2.076000,1.462000
0.570000,-1.221000,2.173000,1.534000
0.590000,-1.320000,2.227000,1.591000
0.610000,-1.380000,2.234000,1.628000
0.630000,-1.404000,2.205000,1.638000
0.650000,-1.399000,2.148000,1.622000
0.670000,-1.378000,2.073000,1.584000
0.690000,-1.354000,1.986000,1.528000
0.710000,-1.339000,1.889000,1.459000
0.730000,-1.338000,1.785000,1.382000
0.750000,-1.352000,1.675000,1.302000
0.770000,-1.377000,1.565000,1.222000
0.790000,-1.409000,1.459000,1.147000
0.810000,-1.441000,1.359000,1.077000
0.830000,-1.467000,1.271000,1.016000
0.850000,-1.477000,1.193000,0.964000
0.870000,-1.468000,1.127000,0.919000
0.890000,-1.438000,1.071000,0.879000
0.910000,-1.392000,1.023000,0.843000
0.930000,-1.332000,0.979000,0.806000
0.950000,-1.261000,0.939000,0.768000
0.970000,-1.178000,0.897000,0.726000
0.990000,-1.087000,0.851000,0.682000
1.010000,-0.997000,0.798000,0.633000
1.030000,-0.917000,0.741000,0.579000
1.050000,-0.850000,0.683000,0.518000
1.070000,-0.786000,0.624000,0.452000
1.090000,-0.720000,0.565000,0.384000
1.110000,-0.655000,0.503000,0.315000
1.130000,-0.594000,0.440000,0.248000
1.150000,-0.538000,0.376000,0.182000
1.170000,-0.491000,0.310000,0.117000
1.190000,-0.452000,0.242000,0.055000
1.210000,-0.412000,0.168000,-0.002000
1.230000,-0.366000,0.087000,-0.057000
1.250000,-0.320000,0.000000,-0.110000
1.270000,-0.281000,-0.096000,-0.162000
1.290000,-0.249000,-0.201000,-0.212000
1.310000,-0.219000,-0.309000,-0.260000
1.330000,-0.184000,-0.414000,-0.306000
1.350000,-0.147000,-0.519000,-0.345000
1.370000,-0.108000,-0.622000,-0.376000
1.390000,-0.060000,-0.718000,-0.398000
1.410000,0.008000,-0.804000,-0.410000
1.430000,0.089000,-0.881000,-0.413000
1.450000,0.177000,-0.951000,-0.410000
1.470000,0.260000,-1.013000,-0.404000
1.490000,0.323000,-1.064000,-0.392000
1.510000,0.355000,-1.100000,-0.376000
1.530000,0.362000,-1.125000,-0.357000
1.550000,0.351000,-1.149000,-0.338000
1.570000,0.336000,-1.179000,-0.322000
1.590000,0.324000,-1.211000,-0.311000
1.610000,0.321000,-1.235000,-0.309000
1.630000,0.321000,-1.244000,-0.311000
1.650000,0.318000,-1.245000,-0.315000
1.670000,0.308000,-1.244000,-0.322000
1.690000,0.298000,-1.242000,-0.332000
1.710000,0.290000,-1.241000,-0.342000
1.730000,0.294000,-1.233000,-0.348000
1.750000,0.323000,-1.201000,-0.346000
1.770000,0.380000,-1.137000,-0.328000
1.790000,0.423000,-1.071000,-0.300000
1.810000,0.408000,-0.994000,-0.267000
1.830000,0.359000,-0.888000,-0.240000
1.850000,0.295000,-0.734000,-0.225000
1.870000,0.186000,-0.534000,-0.199000
1.890000,0.107000,-0.322000,-0.168000
1.910000,0.072000,-0.539000,-0.176000
1.930000,0.075000,-0.762000,-0.205000
1.950000,0.170000,-0.988000,-0.280000
1.970000,0.076000,-1.042000,-0.348000
1.990000,-0.026000,-0.768000,-0.460000
2.010000,-0.174000,-0.611000,-0.467000
2.030000,-0.282000,-0.570000,-0.461000
2.050000,-0.205000,-0.489000,-0.419000
2.070000,-0.110000,-0.468000,-0.396000
2.090000,-0.051000,-0.460000,-0.386000
2.110000,-0.048000,-0.430000,-0.376000
2.130000,-0.085000,-0.397000,-0.374000
2.150000,-0.134000,-0.375000,-0.372000
2.170000,-0.153000,-0.371000,-0.370000
2.190000,-0.136000,-0.345000,-0.360000
2.210000,-0.147000,-0.329000,-0.358000
2.230000,-0.177000,-0.329000,-0.362000
2.250000,-0.192000,-0.329000,-0.365000
2.270000,-0.175000,-0.315000,-0.362000
2.290000,-0.154000,-0.297000,-0.357000
2.310000,-0.146000,-0.285000,-0.353000
2.330000,-0.137000,-0.271000,-0.348000
2.350000,-0.126000,-0.254000,-0.339000
2.370000,-0.119000,-0.245000,-0.329000
2.390000,-0.119000,-0.241000,-0.323000
2.410000,-0.117000,-0.235000,-0.318000
2.430000,-0.105000,-0.229000,-0.311000
2.450000,-0.090000,-0.229000,-0.307000
2.470000,-0.076000,-0.226000,-0.303000
2.490000,-0.069000,-0.219000,-0.298000
2.510000,-0.066000,-0.217000,-0.293000
2.530000,-0.060000,-0.220000,-0.290000
2.550000,-0.051000,-0.219000,-0.286000
2.570000,-0.045000,-0.211000,-0.281000
2.590000,-0.038000,-0.205000,-0.275000
2.610000,-0.030000,-0.204000,-0.269000
2.630000,-0.022000,-0.198000,-0.265000
2.650000,-0.017000,-0.191000,-0.262000
2.670000,-0.009000,-0.189000,-0.260000
2.690000,0.004000,-0.184000,-0.257000
2.710000,0.015000,-0.179000,-0.254000
2.730000,0.022000,-0.178000,-0.251000
2.750000,0.023000,-0.178000,-0.248000
2.770000,0.021000,-0.175000,-0.246000
2.790000,0.025000,-0.172000,-0.243000
2.810000,0.030000,-0.173000,-0.240000
2.830000,0.032000,-0.172000,-0.237000
2.850000,0.031000,-0.167000,-0.235000
2.870000,0.034000,-0.162000,-0.232000
2.890000,0.039000,-0.160000,-0.229000
2.910000,0.042000,-0.158000,-0.227000
2.930000,0.044000,-0.156000,-0.224000
2.950000,0.044000,-0.154000,-0.222000
2.970000,0.044000,-0.152000,-0.219000
2.990000,0.047000,-0.151000,-0.216000
3.010000,0.053000,-0.150000,-0.214000
3.030000,0.059000,-0.147000,-0.211000
3.050000,0.066000,-0.145000,-0.209000
3.070000,0.070000,-0.143000,-0.206000
3.090000,0.073000,-0.141000,-0.204000
3.110000,0.073000,-0.139000,-0.201000
3.130000,0.072000,-0.137000,-0.199000
3.150000,0.068000,-0.135000,-0.196000
3.170000,0.063000,-0.133000,-0.194000
3.190000,0.059000,-0.130000,-0.192000
3.210000,0.057000,-0.128000,-0.190000
3.230000,0.059000,-0.126000,-0.188000
3.250000,0.061000,-0.124000,-0.186000
3.270000,0.061000,-0.121000,-0.184000
3.290000,0.060000,-0.119000,-0.182000
3.310000,0.060000,-0.117000,-0.179000
3.330000,0.058000,-0.116000,-0.177000
3.350000,0.055000,-0.113000,-0.175000
3.370000,0.051000,-0.111000,-0.173000
3.390000,0.049000,-0.108000,-0.171000
3.410000,0.049000,-0.107000,-0.169000
3.430000,0.050000,-0.105000,-0.167000
3.450000,0.050000,-0.103000,-0.165000
3.470000,0.051000,-0.102000,-0.164000
3.490000,0.052000,-0.101000,-0.162000
3.510000,0.053000,-0.099000,-0.160000
3.530000,0.054000,-0.097000,-0.159000
3.550000,0.054000,-0.096000,-0.157000
3.570000,0.053000,-0.095000,-0.155000
3.590000,0.052000,-0.094000,-0.154000
3.610000,0.051000,-0.093000,-0.152000
3.630000,0.050000,-0.092000,-0.151000
3.650000,0.049000,-0.092000,-0.150000
3.670000,0.049000,-0.091000,-0.148000
3.690000,0.050000,-0.090000,-0.147000
3.710000,0.050000,-0.089000,-0.146000
3.730000,0.049000,-0.088000,-0.144000
3.750000,0.048000,-0.086000,-0.143000
3.770000,0.047000,-0.085000,-0.142000
3.790000,0.046000,-0.084000,-0.140000
3.810000,0.044000,-0.082000,-0.139000
3.830000,0.043000,-0.080000,-0.138000
3.850000,0.041000,-0.078000,-0.137000
3.870000,0.040000,-0.077000,-0.135000
3.890000,0.038000,-0.076000,-0.134000
3.910000,0.038000,-0.074000,-0.133000
3.930000,0.038000,-0.073000,-0.132000
3.950000,0.038000,-0.072000,-0.130000
3.970000,0.038000,-0.071000,-0.129000
3.990000,0.038000,-0.070000,-0.128000
4.010000,0.038000,-0.069000,-0.127000
4.030000,0.039000,-0.068000,-0.126000
4.050000,0.038000,-0.068000,-0.125000
4.070000,0.038000,-0.067000,-0.124000
4.090000,0.039000,-0.066000,-0.123000
4.110000,0.041000,-0.065000,-0.122000
4.130000,0.041000,-0.065000,-0.121000
4.150000,0.042000,-0.064000,-0.120000
4.170000,0.045000,-0.064000,-0.119000
4.190000,0.049000,-0.064000,-0.119000
4.210000,0.051000,-0.065000,-0.120000
4.230000,0.051000,-0.066000,-0.122000
4.250000,0.052000,-0.066000,-0.124000
4.270000,0.055000,-0.067000,-0.127000
4.290000,0.058000,-0.067000,-0.131000
4.310000,0.060000,-0.068000,-0.135000
4.330000,0.062000,-0.067000,-0.140000
4.350000,0.064000,-0.067000,-0.145000
4.370000,0.069000,-0.067000,-0.149000
4.390000,0.075000,-0.065000,-0.151000
4.410000,0.082000,-0.064000,-0.152000
4.430000,0.091000,-0.064000,-0.150000
4.450000,0.096000,-0.064000,-0.148000
4.470000,0.093000,-0.064000,-0.146000
4.490000,0.084000,-0.063000,-0.146000
4.510000,0.078000,-0.062000,-0.145000
4.530000,0.076000,-0.062000,-0.144000
4.550000,0.080000,-0.061000,-0.142000
4.570000,0.082000,-0.061000,-0.141000
4.590000,0.080000,-0.060000,-0.140000
4.610000,0.077000,-0.060000,-0.139000
4.630000,0.075000,-0.059000,-0.138000
4.650000,0.074000,-0.058000,-0.137000
4.670000,0.075000,-0.058000,-0.136000
4.690000,0.076000,-0.057000,-0.135000
4.710000,0.074000,-0.057000,-0.134000
4.730000,0.072000,-0.056000,-0.133000
4.750000,0.069000,-0.055000,-0.133000
4.770000,0.068000,-0.054000,-0.133000
4.790000,0.068000,-0.054000,-0.132000
4.810000,0.069000,-0.054000,-0.132000
4.830000,0.068000,-0.053000,-0.132000
4.850000,0.067000,-0.052000,-0.132000
4.870000,0.068000,-0.052000,-0.132000
4.890000,0.068000,-0.051000,-0.132000
4.910000,0.067000,-0.051000,-0.132000
4.930000,0.065000,-0.051000,-0.133000
4.950000,0.064000,-0.050000,-0.134000
4.970000,0.065000,-0.050000,-0.135000
4.990000,0.064000,-0.049000,-0.136000
5.010000,0.063000,-0.049000,-0.138000
5.030000,0.061000,-0.048000,-0.140000
5.050000,0.062000,-0.047000,-0.142000
5.070000,0.063000,-0.047000,-0.145000
5.090000,0.062000,-0.048000,-0.147000
5.110000,0.060000,-0.048000,-0.149000
5.130000,0.059000,-0.048000,-0.151000
5.150000,0.059000,-0.047000,-0.154000
5.170000,0.061000,-0.044000,-0.155000
5.190000,0.065000,-0.042000,-0.156000
5.210000,0.068000,-0.042000,-0.155000
5.230000,0.070000,-0.041000,-0.154000
5.250000,0.069000,-0.040000,-0.152000
5.270000,0.065000,-0.039000,-0.151000
5.290000,0.059000,-0.039000,-0.149000
5.310000,0.055000,-0.038000,-0.148000
5.330000,0.054000,-0.038000,-0.147000
5.350000,0.056000,-0.037000,-0.145000
5.370000,0.056000,-0.036000,-0.144000
5.390000,0.055000,-0.036000,-0.142000
5.410000,0.054000,-0.035000,-0.141000
5.430000,0.053000,-0.034000,-0.140000
5.450000,0.052000,-0.035000,-0.138000
5.470000,0.051000,-0.034000,-0.137000
5.490000,0.052000,-0.033000,-0.136000
5.510000,0.054000,-0.032000,-0.135000
5.530000,0.056000,-0.031000,-0.133000
5.550000,0.059000,-0.031000,-0.132000
5.570000,0.060000,-0.030000,-0.130000
5.590000,0.061000,-0.029000,-0.129000
5.610000,0.061000,-0.029000,-0.128000
5.630000,0.064000,-0.028000,-0.126000
5.650000,0.067000,-0.027000,-0.125000
5.670000,0.069000,-0.027000,-0.124000
5.690000,0.068000,-0.027000,-0.123000
5.710000,0.070000,-0.026000,-0.121000
5.730000,0.074000,-0.025000,-0.119000
5.750000,0.078000,-0.025000,-0.117000
5.770000,0.080000,-0.025000,-0.116000
5.790000,0.078000,-0.025000,-0.115000
5.810000,0.077000,-0.024000,-0.114000
5.830000,0.077000,-0.024000,-0.112000
5.850000,0.076000,-0.024000,-0.111000
5.870000,0.076000,-0.023000,-0.111000
5.890000,0.076000,-0.023000,-0.110000
5.910000,0.076000,-0.023000,-0.109000
5.930000,0.075000,-0.022000,-0.107000
5.950000,0.074000,-0.022000,-0.106000
5.970000,0.073000,-0.021000,-0.105000
5.990000,0.072000,-0.021000,-0.105000
6.010000,0.072000,-0.021000,-0.103000
6.030000,0.071000,-0.020000,-0.103000
6.050000,0.069000,-0.020000,-0.102000
6.070000,0.068000,-0.019000,-0.101000
6.090000,0.066000,-0.019000,-0.100000
6.110000,0.065000,-0.018000,-0.100000
6.130000,0.063000,-0.017000,-0.099000
6.150000,0.062000,-0.017000,-0.098000
6.170000,0.061000,-0.017000,-0.097000
6.190000,0.060000,-0.016000,-0.096000
6.210000,0.059000,-0.016000,-0.096000
6.230000,0.058000,-0.016000,-0.095000
6.250000,0.057000,-0.016000,-0.095000
6.270000,0.057000,-0.016000,-0.094000
6.290000,0.055000,-0.015000,-0.093000
6.310000,0.053000,-0.015000,-0.092000
6.330000,0.051000,-0.014000,-0.092000
6.350000,0.050000,-0.014000,-0.091000
6.370000,0.050000,-0.014000,-0.090000
6.390000,0.048000,-0.013000,-0.089000
6.410000,0.047000,-0.013000,-0.088000
6.430000,0.046000,-0.012000,-0.088000
6.450000,0.046000,-0.012000,-0.087000
6.470000,0.045000,-0.012000,-0.086000
6.490000,0.044000,-0.011000,-0.086000
6.510000,0.042000,-0.011000,-0.085000
6.530000,0.041000,-0.011000,-0.084000
6.550000,0.040000,-0.010000,-0.084000
6.570000,0.039000,-0.010000,-0.083000
6.590000,0.038000,-0.010000,-0.083000
6.610000,0.037000,-0.009000,-0.082000
6.630000,0.036000,-0.009000,-0.081000
6.650000,0.034000,-0.009000,-0.081000
6.670000,0.033000,-0.008000,-0.080000
6.690000,0.033000,-0.008000,-0.080000
6.710000,0.032000,-0.008000,-0.079000
6.730000,0.032000,-0.007000,-0.078000
6.750000,0.031000,-0.007000,-0.078000
6.770000,0.030000,-0.007000,-0.077000
6.790000,0.030000,-0.007000,-0.077000
6.810000,0.030000,-0.007000,-0.076000
6.830000,0.029000,-0.006000,-0.076000
6.850000,0.029000,-0.006000,-0.075000
6.870000,0.028000,-0.006000,-0.074000
6.890000,0.027000,-0.006000,-0.074000
6.910000,0.026000,-0.005000,-0.073000
6.930000,0.026000,-0.005000,-0.073000
6.950000,0.025000,-0.005000,-0.072000
6.970000,0.023000,-0.005000,-0.072000
6.990000,0.023000,-0.004000,-0.071000
7.010000,0.022000,-0.004000,-0.071000
7.030000,0.022000,-0.004000,-0.070000
7.050000,0.021000,-0.004000,-0.070000
7.070000,0.020000,-0.003000,-0.069000
7.090000,0.019000,-0.003000,-0.068000
7.110000,0.019000,-0.003000,-0.068000
7.130000,0.018000,-0.003000,-0.067000
7.150000,0.017000,-0.002000,-0.067000
7.170000,0.016000,-0.002000,-0.066000
7.190000,0.015000,-0.002000,-0.066000
7.210000,0.014000,-0.001000,-0.066000
7.230000,0.013000,-0.001000,-0.065000
7.250000,0.013000,-0.001000,-0.065000
7.270000,0.011000,-0.001000,-0.064000
7.290000,0.010000,0.000000,-0.064000
7.310000,0.009000,0.000000,-0.063000
7.330000,0.008000,0.000000,-0.063000
7.350000,0.007000,0.000000,-0.062000
7.370000,0.006000,0.001000,-0.062000
7.390000,0.005000,0.001000,-0.061000
7.410000,0.004000,0.001000,-0.061000
7.430000,0.004000,0.001000,-0.060000
7.450000,0.003000,0.001000,-0.060000
7.470000,0.002000,0.002000,-0.059000
7.490000,0.002000,0.002000,-0.059000
7.510000,0.001000,0.002000,-0.058000
7.530000,0.000000,0.002000,-0.058000
7.550000,0.000000,0.002000,-0.058000
7.570000,-0.001000,0.003000,-0.057000
7.590000,-0.001000,0.003000,-0.057000
7.610000,-0.002000,0.003000,-0.056000
7.630000,-0.002000,0.003000,-0.056000
7.650000,-0.003000,0.003000,-0.055000
7.670000,-0.003000,0.004000,-0.055000
7.690000,-0.003000,0.004000,-0.054000
7.710000,-0.004000,0.004000,-0.054000
7.730000,-0.004000,0.004000,-0.054000
7.750000,-0.005000,0.004000,-0.053000
7.770000,-0.005000,0.005000,-0.053000
7.790000,-0.005000,0.005000,-0.053000
7.810000,-0.006000,0.005000,-0.052000
7.830000,-0.006000,0.006000,-0.052000
7.850000,-0.007000,0.006000,-0.051000
7.870000,-0.007000,0.006000,-0.051000
7.890000,-0.007000,0.006000,-0.051000
7.910000,-0.008000,0.007000,-0.050000
7.930000,-0.008000,0.007000,-0.050000
7.950000,-0.009000,0.007000,-0.049000
7.970000,-0.009000,0.008000,-0.049000
7.990000,-0.009000,0.008000,-0.049000
