gyro_time_list,gyro_x_list,gyro_y_list,gyro_z_list
0.814,-0.003331,0.072078,0.217167
0.834,0.072611,0.10059,0.260001
0.854,0.158408,0.141805,0.269632
0.874,0.175937,0.109801,0.3217
0.894,0.165177,0.039993,0.390993
0.914,0.182576,0.019141,0.47062
0.934,0.199654,-0.007689,0.563403
0.954,0.230509,-0.0363,0.659122
0.974,0.283997,-0.062822,0.760663
0.994,0.342629,-0.096062,0.861363
1.014,0.409764,-0.127787,0.954221
1.034,0.498868,-0.150986,1.027825
1.054,0.608369,-0.166627,1.089409
1.074,0.724539,-0.178568,1.150161
1.094,0.838328,-0.194659,1.209312
1.114,0.95968,-0.216633,1.265949
1.134,1.083476,-0.23896,1.319039
1.154,1.190398,-0.260799,1.372898
1.174,1.263051,-0.285087,1.42605
1.194,1.307494,-0.314245,1.475911
1.214,1.335465,-0.344465,1.524397
1.234,1.343472,-0.372428,1.573127
1.254,1.328034,-0.401508,1.619025
1.274,1.304802,-0.435076,1.65667
1.294,1.283326,-0.469868,1.688634
1.314,1.256785,-0.503119,1.716117
1.334,1.218979,-0.534722,1.736911
1.354,1.174083,-0.565494,1.748279
1.374,1.125854,-0.594452,1.752715
1.394,1.08274,-0.620525,1.752718
1.414,1.043576,-0.643492,1.746036
1.434,1.006933,-0.662838,1.733297
1.454,0.970493,-0.678447,1.715212
1.474,0.93747,-0.691136,1.69259
1.494,0.90871,-0.701433,1.66544
1.514,0.882182,-0.708663,1.63475
1.534,0.857531,-0.71474,1.601967
1.554,0.831268,-0.71951,1.567063
1.574,0.803426,-0.721668,1.531256
1.594,0.777299,-0.721496,1.494944
1.614,0.753509,-0.71982,1.457512
1.634,0.729974,-0.716788,1.419348
1.654,0.70418,-0.712517,1.380457
1.674,0.675888,-0.707025,1.340197
1.694,0.649791,-0.70026,1.298455
1.714,0.626157,-0.691908,1.256225
1.734,0.601312,-0.682825,1.214281
1.754,0.573602,-0.673704,1.17152
1.774,0.545246,-0.663257,1.127431
1.794,0.517421,-0.650739,1.083292
1.814,0.490961,-0.637628,1.039041
1.834,0.469822,-0.622659,0.994424
1.854,0.455944,-0.605191,0.950268
1.874,0.445515,-0.586274,0.906933
1.894,0.433559,-0.566398,0.86489
1.914,0.419071,-0.544868,0.824994
1.934,0.40227,-0.52217,0.787932
1.954,0.384328,-0.498834,0.753951
1.974,0.366137,-0.474888,0.723643
1.994,0.348027,-0.450448,0.696265
2.014,0.330215,-0.42549,0.671423
2.034,0.312682,-0.401174,0.648435
2.054,0.29571,-0.37756,0.626299
2.074,0.279393,-0.35469,0.605078
2.094,0.264621,-0.332437,0.584354
2.114,0.250944,-0.310396,0.565146
2.134,0.237775,-0.288759,0.547933
2.154,0.225053,-0.268259,0.532331
2.174,0.211846,-0.248922,0.517781
2.194,0.19859,-0.230575,0.503702
2.214,0.186008,-0.213175,0.490462
2.234,0.175685,-0.197351,0.477588
2.254,0.168624,-0.182973,0.465486
2.274,0.164038,-0.170771,0.45368
2.294,0.159777,-0.160652,0.441474
2.314,0.154864,-0.1521,0.429544
2.334,0.149557,-0.145899,0.41716
2.354,0.144155,-0.142158,0.403921
2.374,0.138452,-0.141158,0.38968
2.394,0.131981,-0.143162,0.3739
2.414,0.124354,-0.147727,0.356424
2.434,0.116269,-0.155391,0.336799
2.454,0.10705,-0.167231,0.315303
2.474,0.096908,-0.182831,0.292125
2.494,0.085038,-0.200829,0.266972
2.514,0.068825,-0.216974,0.240676
2.534,0.05841,-0.224104,0.219032
2.554,0.069028,-0.225729,0.205266
2.574,0.090885,-0.237333,0.188457
2.594,0.100501,-0.266256,0.162344
2.614,0.082342,-0.296304,0.127204
2.634,0.037747,-0.292456,0.106873
2.654,-0.018746,-0.253699,0.099631
2.674,-0.055787,-0.212754,0.087657
2.694,-0.055252,-0.173307,0.0867
2.714,-0.046135,-0.12725,0.092278
2.734,-0.064681,-0.075099,0.092384
2.754,-0.113347,-0.019194,0.09476
2.774,-0.166511,0.03149,0.099541
2.794,-0.207403,0.074024,0.103515
3.026,-0.125921,-0.052962,0.002385
3.046,0.001603,-0.192915,-0.110654
3.066,-0.019742,-0.193275,-0.235618
3.086,-0.158394,-0.126955,-0.238478
3.106,-0.30956,-0.051079,-0.166819
3.126,-0.472067,-0.037779,-0.107388
3.146,-0.605532,-0.027329,-0.000881
3.166,-0.598615,-0.04108,-0.001757
3.186,-0.547206,-0.036008,-0.023335
3.206,-0.539586,-0.005941,-0.025897
3.226,-0.566357,0.036509,-0.019629
3.246,-0.606636,0.07534,0.002589
3.266,-0.654166,0.104055,0.028035
3.286,-0.706151,0.126701,0.057239
3.306,-0.719105,0.141836,0.077565
3.326,-0.685175,0.145738,0.076495
3.346,-0.650606,0.150044,0.074701
3.366,-0.632702,0.149713,0.070116
3.386,-0.615746,0.145333,0.064395
3.406,-0.593513,0.141235,0.058829
3.426,-0.577104,0.137916,0.051812
3.449,-0.562789,0.134382,0.043179
3.469,-0.54248,0.132667,0.038493
3.489,-0.517878,0.13071,0.034024
3.509,-0.491773,0.12826,0.028966
3.529,-0.467825,0.124238,0.022594
3.549,-0.448265,0.119365,0.015309
3.569,-0.431463,0.113669,0.0068
3.589,-0.414844,0.107953,-0.002445
3.609,-0.397473,0.103572,-0.012124
3.629,-0.378729,0.098432,-0.021373
3.649,-0.359591,0.094017,-0.028464
3.669,-0.343836,0.090989,-0.034031
3.689,-0.328326,0.08932,-0.036668
3.709,-0.312552,0.088249,-0.037893
3.729,-0.297096,0.087789,-0.038062
3.749,-0.283616,0.08706,-0.037789
3.769,-0.273901,0.086182,-0.037214
3.789,-0.267744,0.085204,-0.036461
3.809,-0.264406,0.084055,-0.035613
3.829,-0.261754,0.082741,-0.034718
3.849,-0.259218,0.081569,-0.03379
3.869,-0.257355,0.080527,-0.032628
3.889,-0.255762,0.079899,-0.031064
3.909,-0.254661,0.079428,-0.029379
3.929,-0.254221,0.079234,-0.027547
3.949,-0.253463,0.079331,-0.025693
3.969,-0.251622,0.079434,-0.024135
3.989,-0.248697,0.079305,-0.02299
4.009,-0.245435,0.078939,-0.022252
4.029,-0.241878,0.078349,-0.021916
4.049,-0.237761,0.077706,-0.021787
4.069,-0.233365,0.076986,-0.021734
4.089,-0.229073,0.076099,-0.021757
4.109,-0.224674,0.075108,-0.02184
4.129,-0.219798,0.074181,-0.021941
4.149,-0.215071,0.073292,-0.022106
4.169,-0.210871,0.072364,-0.022254
4.189,-0.207008,0.071421,-0.022361
4.209,-0.203405,0.070639,-0.022355
4.229,-0.199926,0.06994,-0.022319
4.249,-0.196805,0.069295,-0.02219
4.269,-0.194088,0.06865,-0.022092
4.289,-0.191509,0.068087,-0.021929
4.309,-0.189178,0.067488,-0.021836
4.329,-0.186615,0.066963,-0.021611
4.349,-0.184085,0.066407,-0.021455
4.369,-0.18171,0.065898,-0.021261
4.389,-0.179452,0.065367,-0.021171
4.409,-0.17732,0.064821,-0.021081
4.429,-0.175002,0.06423,-0.02102
4.449,-0.172683,0.063715,-0.020911
4.469,-0.170433,0.063219,-0.020821
4.489,-0.168291,0.062696,-0.020745
4.509,-0.166456,0.062138,-0.020726
4.529,-0.164625,0.061637,-0.0207
4.549,-0.162728,0.061149,-0.020668
4.569,-0.160964,0.060674,-0.020611
4.589,-0.159318,0.060201,-0.020549
4.609,-0.15769,0.059755,-0.020479
4.629,-0.15601,0.059274,-0.020451
4.649,-0.154431,0.058771,-0.020441
4.669,-0.152987,0.058289,-0.020396
4.689,-0.151482,0.057812,-0.020388
4.709,-0.149938,0.057319,-0.02039
4.729,-0.14839,0.056825,-0.020366
4.749,-0.14686,0.056382,-0.020301
4.769,-0.145406,0.055923,-0.020294
4.789,-0.143963,0.055521,-0.020266
4.809,-0.142607,0.055132,-0.020255
4.829,-0.141205,0.054814,-0.02023
4.849,-0.139769,0.054505,-0.020184
4.869,-0.138342,0.054261,-0.020101
4.889,-0.136958,0.053996,-0.020024
4.909,-0.13585,0.053726,-0.019936
4.929,-0.134851,0.053455,-0.019831
4.949,-0.133958,0.053139,-0.019757
4.969,-0.133049,0.05281,-0.019692
4.989,-0.1321,0.052514,-0.019609
5.009,-0.131199,0.052223,-0.019523
5.853,-0.130137,0.051923,-0.019473
5.873,-0.129017,0.051644,-0.019405
5.893,-0.128036,0.051349,-0.019347
5.913,-0.127089,0.051038,-0.019342
5.933,-0.126156,0.05076,-0.019297
5.953,-0.125318,0.050462,-0.019273
5.973,-0.124419,0.050169,-0.019235
5.993,-0.123591,0.049897,-0.019199
6.013,-0.122861,0.049613,-0.019156
6.033,-0.122035,0.049336,-0.019129
6.053,-0.121182,0.049066,-0.019087
6.073,-0.120365,0.048798,-0.019046
6.093,-0.119522,0.048547,-0.019008
6.113,-0.118687,0.048302,-0.018976
6.133,-0.117913,0.048033,-0.018931
6.153,-0.117118,0.047793,-0.0189
6.173,-0.11624,0.047555,-0.018882
6.193,-0.115494,0.047307,-0.01885
6.213,-0.11478,0.047043,-0.018819
6.233,-0.114025,0.046779,-0.018792
6.253,-0.113359,0.046572,-0.018655
6.273,-0.11247,0.046227,-0.0186
6.293,-0.111447,0.045834,-0.018603
6.313,-0.110215,0.045263,-0.018818
6.333,-0.108731,0.044506,-0.019159
6.353,-0.107329,0.043697,-0.019402
6.373,-0.105787,0.042696,-0.019763
6.393,-0.104189,0.041405,-0.020338
6.413,-0.103631,0.040334,-0.020629
6.433,-0.103031,0.039135,-0.020871
6.453,-0.101494,0.037775,-0.021088
6.473,-0.099483,0.036162,-0.021398
6.493,-0.09782,0.03464,-0.021507
6.513,-0.096454,0.032985,-0.021599
6.533,-0.095051,0.031046,-0.021748
6.553,-0.093494,0.029025,-0.021797
6.573,-0.092089,0.027036,-0.021881
6.593,-0.091082,0.025459,-0.021469
6.613,-0.089859,0.023679,-0.021046
6.633,-0.087997,0.021843,-0.021263
6.653,-0.086997,0.021197,-0.020498
6.673,-0.086564,0.020188,-0.0197
6.693,-0.085162,0.017799,-0.020058
6.713,-0.083475,0.01544,-0.020916
6.733,-0.083478,0.014164,-0.020387
6.753,-0.083876,0.013261,-0.018316
6.773,-0.082525,0.011025,-0.018328
6.793,-0.08071,0.00873,-0.019565
6.813,-0.079871,0.00707,-0.019999
6.833,-0.079369,0.004657,-0.019963
6.853,-0.077847,0.002121,-0.020163
6.873,-0.075358,0.000409,-0.02048
6.893,-0.073225,-0.000691,-0.020725
6.913,-0.072211,-0.001376,-0.020686
6.933,-0.071844,-0.00089,-0.020078
6.953,-0.07144,0.000222,-0.018409
6.973,-0.070891,-0.000224,-0.018581
6.993,-0.069892,-0.000442,-0.018933
7.013,-0.068842,-0.000032,-0.018345
7.033,-0.068175,-0.000175,-0.017801
7.053,-0.067421,-0.000881,-0.017789
7.073,-0.065552,-0.001862,-0.018328
7.093,-0.064802,-0.00128,-0.017039
7.113,-0.062684,-0.002001,-0.016774
7.133,-0.058443,-0.003469,-0.017318
7.153,-0.055722,-0.004205,-0.017335
7.173,-0.055511,-0.004195,-0.01676
7.193,-0.053769,-0.005019,-0.016982
7.213,-0.051027,-0.006002,-0.017712
7.233,-0.049157,-0.006168,-0.018025
7.253,-0.04907,-0.006255,-0.017929
7.273,-0.047534,-0.007326,-0.018725
7.293,-0.042778,-0.008183,-0.01992
7.313,-0.039513,-0.007716,-0.019896
7.333,-0.037703,-0.008432,-0.020298
7.353,-0.033704,-0.009449,-0.021196
7.373,-0.029109,-0.009563,-0.02134
7.393,-0.026676,-0.009697,-0.020996
7.413,-0.025045,-0.010333,-0.021213
7.433,-0.023151,-0.010539,-0.021527
7.453,-0.023278,-0.010134,-0.021332
7.473,-0.024324,-0.010082,-0.021275
7.493,-0.024418,-0.010417,-0.021498
7.513,-0.024003,-0.010435,-0.021676
7.533,-0.024637,-0.010042,-0.021502
7.553,-0.025394,-0.010089,-0.021612
7.573,-0.025597,-0.010549,-0.021926
7.593,-0.026132,-0.010713,-0.02205
7.613,-0.027443,-0.010463,-0.021917
7.633,-0.028718,-0.010329,-0.021852
7.653,-0.029364,-0.010567,-0.022108
7.673,-0.029572,-0.010331,-0.022034
7.693,-0.029855,-0.009974,-0.022005
7.713,-0.030466,-0.009884,-0.022014
7.733,-0.031179,-0.009798,-0.021915
7.753,-0.031796,-0.009349,-0.02168
7.773,-0.032204,-0.008791,-0.021383
7.793,-0.032247,-0.008605,-0.0214
7.813,-0.032097,-0.008364,-0.021307
7.833,-0.032354,-0.008004,-0.021246
