accel_time_list,accel_x_list,accel_y_list,accel_z_list
0.474,-0.672771,-3.569755,10.13226
0.494,-0.599748,-3.411737,10.10952
0.514,-0.589762,-3.378147,10.12588
0.534,-0.575785,-3.397964,10.13347
0.554,-0.605273,-3.424728,10.11789
0.574,-0.618948,-3.456583,10.08393
0.594,-0.644832,-3.472135,10.04455
0.614,-0.628509,-3.480487,9.993614
0.634,-0.607793,-3.472811,9.935934
0.654,-0.60277,-3.442851,9.869302
0.674,-0.596473,-3.415885,9.799747
0.694,-0.589221,-3.387541,9.735024
0.714,-0.621449,-3.344138,9.681021
0.734,-0.619625,-3.290468,9.625447
0.754,-0.63754,-3.239815,9.569374
0.774,-0.688193,-3.18315,9.487837
0.794,-0.733891,-3.108104,9.366693
0.814,-0.750727,-3.028611,9.246416
0.834,-0.789595,-2.995145,9.160379
0.854,-0.859088,-2.995781,9.097296
0.874,-0.942272,-3.021087,9.042686
0.894,-1.027064,-3.014527,8.972898
0.914,-1.109833,-2.972394,8.925834
0.934,-1.250945,-2.993084,8.924356
0.954,-1.42883,-3.007804,8.926674
0.974,-1.584354,-2.966426,8.922708
0.994,-1.751368,-2.930222,8.920353
1.014,-1.969891,-2.91605,8.941574
1.034,-2.22435,-2.923398,8.975251
1.054,-2.500436,-2.95955,9.013411
1.074,-2.796821,-3.008786,9.05302
1.094,-3.084278,-3.057565,9.102907
1.114,-3.337244,-3.111616,9.160948
1.134,-3.576786,-3.170621,9.218328
1.154,-3.79981,-3.234082,9.264815
1.174,-3.971864,-3.301718,9.292871
1.194,-4.083038,-3.363058,9.317357
1.214,-4.176265,-3.411565,9.344555
1.234,-4.260338,-3.451753,9.361338
1.254,-4.315874,-3.496622,9.359686
1.274,-4.343497,-3.54967,9.352899
1.294,-4.360573,-3.604392,9.347772
1.314,-4.374814,-3.653039,9.342853
1.334,-4.373357,-3.699892,9.330385
1.354,-4.352997,-3.750634,9.313785
1.374,-4.323816,-3.792843,9.300721
1.394,-4.289166,-3.829466,9.297164
1.414,-4.239606,-3.867473,9.296974
1.434,-4.168061,-3.905643,9.298932
1.454,-4.090429,-3.94223,9.303226
1.474,-4.01686,-3.965004,9.317829
1.494,-3.939768,-3.968902,9.3367
1.514,-3.844209,-3.959214,9.348508
1.534,-3.730057,-3.937955,9.353849
1.554,-3.608203,-3.918036,9.357371
1.574,-3.489108,-3.905731,9.360547
1.594,-3.370664,-3.891038,9.358674
1.614,-3.250266,-3.870434,9.353903
1.634,-3.122119,-3.846835,9.342944
1.654,-2.984177,-3.828,9.332121
1.674,-2.842033,-3.813409,9.324544
1.694,-2.704209,-3.800217,9.321032
1.714,-2.579212,-3.788044,9.313906
1.734,-2.446625,-3.769031,9.296453
1.754,-2.292028,-3.740503,9.269221
1.774,-2.118663,-3.704613,9.233743
1.794,-1.928076,-3.664052,9.187346
1.814,-1.719965,-3.625305,9.131253
1.834,-1.493336,-3.592685,9.056286
1.854,-1.244507,-3.56109,8.969778
1.874,-0.978438,-3.527221,8.884869
1.894,-0.701931,-3.490502,8.789413
1.914,-0.417597,-3.463507,8.661677
1.934,-0.136234,-3.443733,8.500599
1.954,0.140305,-3.416256,8.328602
1.974,0.394193,-3.381431,8.16382
1.994,0.627525,-3.354362,7.978041
2.014,0.837212,-3.324257,7.744486
2.034,0.965984,-3.244989,7.460569
2.054,1.007683,-3.113236,7.178463
2.074,1.028615,-2.935776,6.937139
2.094,1.066115,-2.751131,6.739491
2.114,1.094986,-2.611983,6.523797
2.134,1.11714,-2.530243,6.256784
2.154,1.09895,-2.45789,6.018093
2.174,0.849943,-2.453476,5.848772
2.194,0.25224,-2.537087,5.791743
2.214,-0.723328,-2.556432,5.935802
2.234,-2.146441,-2.498121,6.19406
2.254,-4.26293,-2.637095,6.395749
2.274,-6.676485,-2.884151,6.290948
2.294,-16.91405,-5.12426,9.390882
2.314,-19.84707,-2.594392,3.352366
2.334,9.249737,6.019417,-5.693846
2.354,-12.48445,6.546759,-5.518762
2.374,-28.46561,-2.867465,1.709193
2.394,-8.641714,-11.321,3.229747
2.414,-3.923182,-10.17067,3.530684
2.434,-0.496126,-7.637122,4.200611
2.454,3.520676,-5.151813,5.151045
2.984,2.714531,-5.135108,5.790088
3.004,2.277066,-5.038501,6.316801
3.024,1.943226,-5.029353,6.731966
3.044,1.689894,-5.111364,6.99496
3.064,1.496198,-5.274344,7.22257
3.084,1.353924,-5.384183,7.422004
3.104,1.259016,-5.378453,7.581792
3.124,1.185404,-5.345309,7.753443
3.144,1.104164,-5.337425,7.88919
3.164,1.069337,-5.368649,7.96955
3.184,1.030085,-5.421302,8.041561
3.204,0.982234,-5.438155,8.123228
3.224,0.962389,-5.45266,8.165006
3.244,0.96393,-5.478539,8.192982
3.264,0.952291,-5.531717,8.220352
3.284,0.929953,-5.559011,8.263014
3.304,0.913056,-5.56534,8.301597
3.324,0.908204,-5.583328,8.329174
3.344,0.899481,-5.609574,8.348039
3.364,0.886854,-5.614792,8.379738
3.384,0.879726,-5.608756,8.408985
3.404,0.87824,-5.620942,8.427058
3.424,0.874213,-5.656467,8.432048
3.444,0.868983,-5.682353,8.439183
3.464,0.865059,-5.681875,8.456182
3.484,0.85816,-5.68006,8.47796
3.504,0.852846,-5.686647,8.489327
3.524,0.852747,-5.703547,8.49288
3.544,0.846685,-5.725433,8.50169
3.564,0.838843,-5.739009,8.512348
3.584,0.839939,-5.737453,8.522298
3.604,0.838571,-5.737137,8.533278
3.624,0.833191,-5.75106,8.54073
3.644,0.82392,-5.770929,8.548186
3.664,0.821568,-5.782033,8.552881
3.684,0.820319,-5.787631,8.557786
3.704,0.818184,-5.793133,8.566472
3.724,0.81139,-5.802701,8.576359
3.744,0.80698,-5.810969,8.583145
3.764,0.808159,-5.809005,8.589669
3.784,0.807492,-5.804933,8.598467
3.804,0.804038,-5.8032,8.609627
3.824,0.801014,-5.80282,8.618289
3.844,0.799419,-5.802132,8.625039
3.864,0.796307,-5.800839,8.634424
3.884,0.793222,-5.801468,8.642263
3.904,0.791481,-5.809331,8.64687
3.924,0.792795,-5.812354,8.650828
3.944,0.795323,-5.804537,8.658941
3.964,0.791823,-5.80288,8.668724
3.984,0.787279,-5.804074,8.674758
4.004,0.786502,-5.808189,8.678231
4.024,0.789199,-5.8112,8.679559
4.044,0.790596,-5.809847,8.684102
4.064,0.788574,-5.807707,8.691742
4.084,0.788902,-5.80694,8.695918
4.104,0.790276,-5.811555,8.695038
4.124,0.789732,-5.823558,8.694232
4.144,0.788634,-5.83266,8.695529
4.164,0.787533,-5.834414,8.698073
4.184,0.788327,-5.833935,8.699797
4.204,0.788745,-5.836207,8.702271
4.224,0.787003,-5.843212,8.703354
4.244,0.787958,-5.850986,8.701978
4.264,0.789256,-5.855458,8.702031
4.284,0.789049,-5.85645,8.705608
4.304,0.788776,-5.856557,8.708933
4.324,0.788866,-5.858306,8.710722
4.344,0.787552,-5.862744,8.71275
4.364,0.787657,-5.864463,8.714648
4.384,0.788306,-5.865817,8.716352
4.404,0.789508,-5.86651,8.717832
4.424,0.789649,-5.865065,8.721063
4.444,0.78828,-5.864265,8.72489
4.464,0.788822,-5.867082,8.725725
4.484,0.789126,-5.873181,8.724811
4.504,0.789359,-5.876111,8.725921
4.524,0.789399,-5.873201,8.729428
4.544,0.788456,-5.870363,8.734452
4.564,0.788265,-5.872288,8.73562
4.584,0.789516,-5.878713,8.733658
4.604,0.78976,-5.884169,8.732455
4.624,0.789822,-5.883719,8.735168
4.644,0.789334,-5.880709,8.738667
4.664,0.789572,-5.88166,8.740317
4.684,0.790058,-5.885105,8.740329
4.704,0.790366,-5.887683,8.741014
4.724,0.789782,-5.889537,8.742261
4.744,0.78995,-5.889884,8.743451
4.764,0.790546,-5.890592,8.744445
4.784,0.791155,-5.891789,8.745416
4.804,0.791223,-5.892766,8.746559
4.824,0.791446,-5.894517,8.747293
4.844,0.791353,-5.896259,8.748256
4.864,0.791801,-5.896859,8.749734
4.884,0.79196,-5.895234,8.75182
4.904,0.792542,-5.894698,8.752889
4.924,0.792864,-5.89791,8.752475
4.944,0.793131,-5.901503,8.752276
4.964,0.793757,-5.901633,8.752951
5.655,0.787065,-5.900183,8.758769
5.675,0.783562,-5.894119,8.764019
5.695,0.785854,-5.888272,8.765933
5.715,0.782616,-5.888637,8.768059
5.735,0.776466,-5.890232,8.773861
5.755,0.774088,-5.887824,8.778769
5.775,0.772907,-5.886212,8.780849
5.795,0.76999,-5.884294,8.784702
5.815,0.7666,-5.88023,8.792265
5.835,0.76298,-5.876781,8.797458
5.855,0.761504,-5.872098,8.800319
5.875,0.761502,-5.864422,8.804971
5.895,0.759059,-5.858546,8.811324
5.915,0.753886,-5.856846,8.81589
5.935,0.752141,-5.85344,8.816963
5.955,0.752449,-5.848225,8.819893
5.975,0.748133,-5.848855,8.824254
5.995,0.74453,-5.847205,8.827638
6.015,0.743788,-5.839777,8.831275
6.035,0.742264,-5.833166,8.836192
6.055,0.739798,-5.834474,8.839935
6.075,0.736494,-5.836056,8.841534
6.095,0.734899,-5.833528,8.844074
6.115,0.737629,-5.826285,8.847547
6.135,0.735712,-5.82158,8.852421
6.155,0.732281,-5.819652,8.855355
6.175,0.730417,-5.817647,8.858667
6.195,0.729075,-5.812886,8.863766
6.215,0.728248,-5.80288,8.868717
6.235,0.728316,-5.794268,8.875008
6.255,0.726468,-5.793881,8.876974
6.275,0.724949,-5.791488,8.877819
6.295,0.72469,-5.789885,8.881912
6.315,0.722926,-5.783988,8.887281
6.335,0.723382,-5.775613,8.891639
6.355,0.723283,-5.765884,8.896575
6.375,0.721677,-5.760706,8.901175
6.395,0.718458,-5.761685,8.905129
6.415,0.717092,-5.761481,8.90756
6.435,0.71787,-5.754241,8.910326
6.455,0.715958,-5.748628,8.915793
6.475,0.713707,-5.747166,8.919339
6.495,0.712699,-5.74749,8.921269
6.515,0.712132,-5.744388,8.924593
6.535,0.712217,-5.738204,8.929463
6.555,0.710793,-5.734739,8.933208
6.575,0.709958,-5.73138,8.936292
6.595,0.709419,-5.730115,8.939178
6.615,0.708813,-5.727018,8.942274
6.635,0.708524,-5.721463,8.945579
6.655,0.707113,-5.719698,8.949233
6.675,0.706698,-5.71898,8.951894
6.695,0.706766,-5.715995,8.953953
6.715,0.706881,-5.711101,8.956878
6.735,0.706228,-5.708601,8.960084
6.755,0.704337,-5.708833,8.962636
6.775,0.704405,-5.705686,8.965857
6.795,0.704663,-5.70166,8.969954
6.815,0.704488,-5.697484,8.973269
6.835,0.703907,-5.69287,8.975857
6.855,0.703069,-5.691127,8.979041
6.875,0.703006,-5.689977,8.981308
6.895,0.703541,-5.687593,8.983528
6.915,0.704694,-5.683845,8.98563
6.935,0.705045,-5.680277,8.989291
6.955,0.702783,-5.675812,8.993371
6.975,0.701453,-5.674479,8.996093
6.995,0.701598,-5.672777,8.998381
7.015,0.702842,-5.669392,9.001268
7.035,0.70211,-5.664916,9.004629
7.055,0.701601,-5.661968,9.008148
7.075,0.700786,-5.659601,9.011225
7.095,0.701607,-5.655558,9.014247
7.115,0.701774,-5.65122,9.016975
7.135,0.701172,-5.64884,9.019557
7.155,0.700625,-5.648065,9.022017
7.175,0.700514,-5.646101,9.02407
7.195,0.700117,-5.643629,9.026365
7.215,0.700346,-5.640703,9.028829
7.235,0.701028,-5.636681,9.03189
7.255,0.700482,-5.633465,9.03516
7.275,0.700085,-5.630449,9.037296
7.295,0.69974,-5.628972,9.039794
7.315,0.69971,-5.627414,9.042075
7.335,0.700183,-5.625177,9.044525
7.355,0.700316,-5.621406,9.047382
7.375,0.69925,-5.617314,9.050522
7.395,0.698555,-5.614938,9.053511
7.415,0.69765,-5.613568,9.056182
7.435,0.697449,-5.612452,9.058275
7.455,0.697945,-5.608569,9.060899
7.475,0.69822,-5.603312,9.064526
7.495,0.698037,-5.599736,9.06735
7.515,0.697521,-5.598111,9.06986
7.535,0.698135,-5.595089,9.072032
7.555,0.697403,-5.593798,9.074374
7.575,0.697851,-5.591275,9.076526
7.595,0.698247,-5.589327,9.078775
7.615,0.698423,-5.587423,9.080763
7.635,0.698118,-5.584341,9.083185
