gyro_time_list,gyro_x_list,gyro_y_list,gyro_z_list
0.045000,0.022116,-0.033841,0.512674
0.065000,0.074543,-0.038304,0.473704
0.085000,-0.000958,0.013110,0.481065
0.105000,-0.057118,0.095766,0.377747
0.125000,-0.154846,0.101887,0.280036
0.145000,-0.209985,0.094605,0.248424
0.165000,-0.215104,0.091971,0.232512
0.185000,-0.169574,0.083968,0.261798
0.205000,-0.112432,0.084831,0.269265
0.225000,-0.079763,0.086407,0.284291
0.245000,-0.086466,0.086938,0.303879
0.265000,-0.115787,0.088040,0.317097
0.285000,-0.149081,0.089261,0.330728
0.305000,-0.171639,0.090747,0.346321
0.325000,-0.182750,0.092670,0.363715
0.345000,-0.188989,0.095259,0.382442
0.365000,-0.197031,0.098176,0.402400
0.385000,-0.208153,0.101368,0.421561
0.405000,-0.219044,0.104714,0.439488
0.425000,-0.227223,0.108058,0.456261
0.445000,-0.232812,0.111195,0.471304
0.465000,-0.237798,0.114343,0.483626
0.485000,-0.243860,0.117161,0.492540
0.505000,-0.251667,0.119361,0.497669
0.525000,-0.260817,0.120658,0.499382
0.545000,-0.271965,0.121281,0.498536
0.565000,-0.286215,0.121646,0.495641
0.585000,-0.302613,0.122275,0.491616
0.605000,-0.319032,0.123945,0.487928
0.625000,-0.333554,0.126192,0.485442
0.645000,-0.346296,0.127922,0.483999
0.665000,-0.358484,0.129387,0.483546
0.685000,-0.370481,0.131193,0.483248
0.705000,-0.382289,0.133229,0.482468
0.725000,-0.394294,0.135556,0.480852
0.745000,-0.407417,0.137642,0.478738
0.765000,-0.422656,0.140481,0.476294
0.785000,-0.440607,0.145038,0.474257
0.805000,-0.460497,0.151813,0.472438
0.825000,-0.479563,0.161031,0.470706
0.845000,-0.494601,0.172593,0.469072
0.865000,-0.502245,0.186105,0.468595
0.885000,-0.501323,0.201080,0.470637
0.905000,-0.494874,0.216868,0.474603
0.925000,-0.487325,0.233388,0.479275
0.945000,-0.480845,0.250639,0.483630
0.965000,-0.473872,0.267862,0.487927
0.985000,-0.464859,0.284221,0.492764
1.005000,-0.453759,0.299860,0.497073
1.025000,-0.441485,0.314227,0.500312
1.045000,-0.428705,0.326726,0.502156
1.065000,-0.415575,0.336926,0.503052
1.085000,-0.403440,0.345191,0.502078
1.105000,-0.393849,0.352600,0.498547
1.125000,-0.385753,0.359744,0.492735
1.145000,-0.375867,0.365840,0.485622
1.165000,-0.361997,0.370022,0.477883
1.185000,-0.344441,0.372344,0.470100
1.205000,-0.325049,0.372368,0.462223
1.225000,-0.306166,0.369908,0.454831
1.245000,-0.290755,0.365131,0.447143
1.265000,-0.279268,0.359102,0.439145
1.285000,-0.270273,0.351858,0.431216
1.305000,-0.262258,0.342317,0.422162
1.325000,-0.253920,0.330434,0.412355
1.345000,-0.245218,0.316419,0.400762
1.365000,-0.235261,0.300117,0.387637
1.385000,-0.223901,0.281643,0.373596
1.405000,-0.212765,0.261700,0.358104
1.425000,-0.202274,0.240396,0.340562
1.445000,-0.192138,0.216957,0.320991
1.465000,-0.182340,0.190497,0.298095
1.485000,-0.171204,0.161418,0.271296
1.505000,-0.156219,0.128158,0.240728
1.525000,-0.139612,0.089960,0.204750
1.545000,-0.127824,0.048475,0.159236
1.565000,-0.121093,0.003279,0.106269
1.585000,-0.117625,-0.041681,0.041537
1.605000,-0.114528,-0.078879,-0.048355
1.625000,-0.098280,-0.108525,-0.155948
1.645000,-0.061034,-0.136502,-0.262722
1.665000,-0.007822,-0.161572,-0.359121
1.685000,0.050316,-0.168839,-0.431781
1.705000,0.102321,-0.130977,-0.465286
1.725000,0.209137,-0.037367,-0.399818
1.745000,0.264060,-0.164241,-0.372333
1.765000,0.203663,-0.303246,-0.435985
1.785000,0.267872,-0.453563,-0.420019
1.805000,0.240095,-0.613887,-0.443458
1.825000,0.121079,-0.782462,-0.457980
1.845000,-0.034512,-0.957163,-0.562995
1.865000,-0.158861,-1.125044,-0.599319
1.885000,-0.184351,-1.248092,-0.739347
1.905000,-0.074344,-1.158616,-0.817756
1.925000,0.115972,-1.044530,-0.808665
1.945000,0.297750,-0.947504,-0.830361
1.965000,0.393903,-0.894570,-0.845599
1.985000,0.421151,-0.947828,-0.727867
2.005000,0.298744,-1.043469,-0.535479
2.025000,0.057002,-1.053482,-0.370051
2.062000,0.305993,-0.920603,-0.360531
2.082000,0.562349,-0.815161,-0.403319
2.102000,0.820834,-0.697849,-0.428801
2.122000,1.076358,-0.621037,-0.466625
2.142000,1.324404,-0.564959,-0.531547
2.162000,1.496743,-0.498947,-0.605537
2.182000,1.473079,-0.424679,-0.644056
2.202000,1.276413,-0.372099,-0.659724
2.222000,1.008009,-0.379974,-0.634210
2.242000,0.720039,-0.378453,-0.623727
2.262000,0.456343,-0.370936,-0.616980
2.282000,0.283348,-0.361432,-0.597964
2.302000,0.231158,-0.354367,-0.573569
2.322000,0.241702,-0.342911,-0.544025
2.342000,0.242340,-0.321788,-0.515080
2.362000,0.234546,-0.296076,-0.488531
2.382000,0.250793,-0.282385,-0.468264
2.402000,0.260191,-0.277335,-0.463520
2.422000,0.232026,-0.274908,-0.462605
2.442000,0.176398,-0.272348,-0.461319
2.462000,0.107593,-0.268005,-0.459619
2.482000,0.032925,-0.265038,-0.455982
2.502000,-0.032438,-0.261855,-0.450295
2.522000,-0.068957,-0.257033,-0.444174
2.542000,-0.074210,-0.250397,-0.437446
2.562000,-0.061880,-0.243827,-0.428697
2.582000,-0.040799,-0.236509,-0.417691
2.602000,-0.016753,-0.228441,-0.404792
2.622000,0.006252,-0.220243,-0.390685
2.642000,0.025466,-0.213762,-0.377363
2.662000,0.039790,-0.208807,-0.365457
2.682000,0.047942,-0.203642,-0.354937
2.702000,0.048721,-0.198619,-0.345862
2.722000,0.042994,-0.194299,-0.338239
2.742000,0.034813,-0.190015,-0.331609
2.762000,0.027273,-0.185916,-0.325371
2.782000,0.020783,-0.182016,-0.319342
2.802000,0.014817,-0.178088,-0.313522
2.822000,0.009827,-0.173713,-0.307368
2.842000,0.006382,-0.169019,-0.300785
2.862000,0.004791,-0.164852,-0.294148
2.882000,0.004945,-0.161116,-0.287553
2.902000,0.006145,-0.157366,-0.280864
2.922000,0.007729,-0.153763,-0.274162
2.942000,0.009150,-0.150458,-0.267589
2.962000,0.010170,-0.147534,-0.261531
2.982000,0.010596,-0.144637,-0.256136
3.002000,0.009942,-0.141442,-0.251089
3.022000,0.008118,-0.138399,-0.246278
3.042000,0.006305,-0.135534,-0.241590
3.062000,0.005553,-0.132633,-0.236905
3.082000,0.005871,-0.129830,-0.232298
3.102000,0.006600,-0.127256,-0.228010
3.122000,0.007378,-0.124946,-0.223973
3.142000,0.007892,-0.123048,-0.220023
3.162000,0.007900,-0.121353,-0.216233
3.182000,0.007339,-0.119537,-0.212820
3.202000,0.006361,-0.117431,-0.209593
3.222000,0.004670,-0.115242,-0.206398
3.242000,0.002841,-0.112938,-0.203214
3.262000,0.001820,-0.110450,-0.200019
3.282000,0.001392,-0.108218,-0.196847
3.302000,0.000994,-0.106293,-0.193713
3.322000,0.000284,-0.104503,-0.190659
3.342000,-0.000562,-0.102693,-0.187711
3.362000,-0.001207,-0.100738,-0.184695
3.382000,-0.001610,-0.098998,-0.181711
3.402000,-0.001804,-0.097376,-0.178881
3.422000,-0.001883,-0.095462,-0.176117
3.442000,-0.002205,-0.093719,-0.173385
3.462000,-0.002868,-0.092178,-0.170800
3.482000,-0.003461,-0.090477,-0.168370
3.502000,-0.003796,-0.088730,-0.166031
3.522000,-0.004245,-0.087248,-0.163715
3.542000,-0.005055,-0.085908,-0.161497
3.562000,-0.005984,-0.084475,-0.159344
3.582000,-0.006796,-0.083061,-0.157285
3.602000,-0.007668,-0.081770,-0.155228
3.622000,-0.008529,-0.080534,-0.153198
3.642000,-0.009103,-0.079236,-0.151273
3.662000,-0.009543,-0.077901,-0.149393
3.682000,-0.010124,-0.076689,-0.147514
3.702000,-0.010686,-0.075498,-0.145638
3.722000,-0.011020,-0.074248,-0.143764
3.742000,-0.011117,-0.073015,-0.141949
3.762000,-0.011304,-0.071835,-0.140212
3.782000,-0.011856,-0.070753,-0.138608
3.802000,-0.012681,-0.069582,-0.137036
3.822000,-0.013413,-0.068413,-0.135460
3.842000,-0.013927,-0.067423,-0.133934
3.862000,-0.014316,-0.066439,-0.132407
3.882000,-0.014624,-0.065316,-0.130824
3.902000,-0.014823,-0.064272,-0.129265
3.922000,-0.014908,-0.063376,-0.127708
3.942000,-0.014873,-0.062356,-0.126201
3.962000,-0.014902,-0.061324,-0.124780
3.982000,-0.015287,-0.060435,-0.123500
4.002000,-0.016017,-0.059533,-0.122231
4.022000,-0.016661,-0.058592,-0.120930
4.042000,-0.016890,-0.057689,-0.119635
4.074000,-0.016917,-0.056842,-0.118350
4.094000,-0.017169,-0.055989,-0.117125
4.114000,-0.017639,-0.055126,-0.115944
4.134000,-0.018033,-0.054371,-0.114775
4.154000,-0.018268,-0.053570,-0.113621
4.174000,-0.018473,-0.052772,-0.112467
4.194000,-0.018685,-0.051965,-0.111368
4.214000,-0.018926,-0.051150,-0.110283
4.234000,-0.019174,-0.050415,-0.109195
4.254000,-0.019445,-0.049714,-0.108111
4.274000,-0.019627,-0.049012,-0.107046
4.294000,-0.019672,-0.048260,-0.106021
4.314000,-0.019864,-0.047518,-0.105051
4.334000,-0.020341,-0.046841,-0.104136
4.354000,-0.020872,-0.046184,-0.103207
4.374000,-0.021129,-0.045514,-0.102267
4.394000,-0.021164,-0.044815,-0.101352
4.414000,-0.021327,-0.044211,-0.100439
4.434000,-0.021605,-0.043573,-0.099500
4.454000,-0.021758,-0.042853,-0.098571
4.474000,-0.021710,-0.042208,-0.097692
4.494000,-0.021681,-0.041586,-0.096849
4.514000,-0.021913,-0.040929,-0.096006
4.534000,-0.022337,-0.040322,-0.095195
4.554000,-0.022723,-0.039691,-0.094423
4.574000,-0.023034,-0.039113,-0.093656
4.594000,-0.023342,-0.038533,-0.092886
4.614000,-0.023649,-0.037940,-0.092085
4.634000,-0.023770,-0.037336,-0.091291
4.654000,-0.023768,-0.036762,-0.090460
4.674000,-0.023854,-0.036189,-0.089682
4.694000,-0.024063,-0.035581,-0.088903
4.714000,-0.024217,-0.034954,-0.088142
4.734000,-0.024280,-0.034314,-0.087417
4.754000,-0.024451,-0.033745,-0.086663
4.774000,-0.024711,-0.033154,-0.085920
4.794000,-0.024810,-0.032510,-0.085149
4.814000,-0.024676,-0.031875,-0.084391
4.834000,-0.024493,-0.031220,-0.083616
4.854000,-0.024251,-0.030409,-0.082899
4.874000,-0.024039,-0.029616,-0.082160
4.894000,-0.024052,-0.028888,-0.081480
4.914000,-0.024247,-0.028050,-0.080778
4.934000,-0.024335,-0.027069,-0.080132
4.954000,-0.024302,-0.026164,-0.079490
4.974000,-0.024276,-0.025368,-0.078934
4.994000,-0.024517,-0.024616,-0.078386
5.014000,-0.025022,-0.023968,-0.077814
5.034000,-0.025519,-0.023436,-0.077194
5.054000,-0.025601,-0.022990,-0.076494
5.074000,-0.025255,-0.022707,-0.075807
5.094000,-0.024973,-0.022620,-0.075144
5.114000,-0.025142,-0.022582,-0.074542
5.134000,-0.025744,-0.022494,-0.074037
5.154000,-0.026450,-0.022283,-0.073544
5.174000,-0.026929,-0.021924,-0.072978
5.194000,-0.027010,-0.021562,-0.072431
5.214000,-0.026858,-0.021211,-0.071862
5.234000,-0.026700,-0.020765,-0.071218
5.254000,-0.026513,-0.020194,-0.070507
5.274000,-0.026136,-0.019616,-0.069754
5.294000,-0.025474,-0.018919,-0.069005
5.314000,-0.024492,-0.017859,-0.068169
5.334000,-0.023378,-0.016660,-0.067227
5.354000,-0.022188,-0.015658,-0.066382
5.374000,-0.021113,-0.014879,-0.065707
5.394000,-0.020712,-0.014244,-0.065082
5.414000,-0.021167,-0.013715,-0.064445
5.434000,-0.021906,-0.013325,-0.063979
5.454000,-0.022324,-0.012773,-0.063742
5.474000,-0.022459,-0.012098,-0.063436
5.494000,-0.022592,-0.011533,-0.062538
5.514000,-0.021902,-0.011017,-0.061415
5.534000,-0.020071,-0.010627,-0.060210
5.554000,-0.017583,-0.010129,-0.059063
5.574000,-0.013450,-0.008761,-0.057483
5.594000,-0.011325,-0.007547,-0.056565
5.614000,-0.012640,-0.007056,-0.056316
5.634000,-0.012879,-0.005255,-0.056484
5.654000,-0.011755,-0.003639,-0.056710
5.674000,-0.006823,-0.004015,-0.056222
5.694000,0.001569,-0.005766,-0.055578
5.714000,0.009884,-0.008309,-0.053797
5.734000,0.007794,-0.008519,-0.052918
5.754000,0.001045,-0.007249,-0.051529
5.774000,-0.004622,-0.005764,-0.051400
5.794000,-0.008205,-0.004468,-0.051061
5.814000,-0.008901,-0.003218,-0.050193
5.834000,-0.007404,-0.001727,-0.048685
5.854000,-0.002985,-0.000792,-0.047211
5.874000,0.002326,-0.000425,-0.045859
5.894000,0.005312,0.002074,-0.045808
5.914000,0.007023,0.003824,-0.044424
5.934000,0.007905,0.003217,-0.044644
5.954000,0.007129,0.002094,-0.044721
5.974000,0.005150,0.001284,-0.045273
5.994000,0.002713,0.000629,-0.045728
6.014000,-0.000681,-0.000006,-0.045941
6.034000,-0.005375,0.000330,-0.045977
6.054000,-0.011507,0.001857,-0.046217
6.115000,-0.014372,0.001892,-0.046883
6.135000,-0.014707,0.002001,-0.047110
6.155000,-0.013627,0.001912,-0.047353
6.175000,-0.011522,0.001866,-0.047973
6.195000,-0.008838,0.001670,-0.048671
6.215000,-0.005523,0.000935,-0.049676
6.235000,-0.002515,0.000657,-0.050200
6.255000,-0.000228,0.001231,-0.049983
6.275000,0.002010,0.001668,-0.049422
6.295000,0.004167,0.001750,-0.048774
6.315000,0.006279,0.001707,-0.048207
6.335000,0.009323,0.001842,-0.047830
6.355000,0.012635,0.001863,-0.047399
6.375000,0.015213,0.001573,-0.047364
6.395000,0.017114,0.001107,-0.047436
6.415000,0.016567,0.000684,-0.047027
6.435000,0.015254,0.000599,-0.046602
6.455000,0.014549,0.001383,-0.046018
6.475000,0.013805,0.002387,-0.044960
6.495000,0.012944,0.002904,-0.044025
6.515000,0.011241,0.003100,-0.043339
6.535000,0.008167,0.003636,-0.042170
6.555000,0.004335,0.004606,-0.040930
6.575000,0.000457,0.005310,-0.039760
6.595000,-0.002383,0.005697,-0.039201
6.615000,-0.003330,0.006083,-0.038961
6.635000,-0.002908,0.006206,-0.038661
6.655000,-0.001878,0.006408,-0.038283
6.675000,-0.000939,0.006744,-0.037766
6.695000,-0.000792,0.007011,-0.037138
6.715000,-0.001626,0.007200,-0.036503
6.735000,-0.002416,0.007395,-0.036179
6.755000,-0.003033,0.007714,-0.035877
6.775000,-0.003779,0.008052,-0.035424
6.795000,-0.005014,0.008376,-0.034647
6.815000,-0.006725,0.008715,-0.033832
6.835000,-0.008622,0.009113,-0.033084
6.855000,-0.010483,0.009618,-0.032471
6.875000,-0.011691,0.009948,-0.032045
6.895000,-0.012468,0.010055,-0.031693
6.915000,-0.013072,0.010179,-0.031353
6.935000,-0.013623,0.010400,-0.030900
6.955000,-0.014530,0.010742,-0.030087
6.975000,-0.015716,0.010919,-0.029095
6.995000,-0.016289,0.010943,-0.028283
7.015000,-0.016026,0.011035,-0.027539
7.035000,-0.015483,0.011217,-0.026955
7.055000,-0.014973,0.011409,-0.026693
7.075000,-0.014944,0.011596,-0.026597
7.095000,-0.015348,0.011629,-0.026672
7.115000,-0.015826,0.011721,-0.026822
7.135000,-0.016314,0.012074,-0.026823
7.155000,-0.016724,0.012422,-0.026588
7.175000,-0.017144,0.012580,-0.026248
7.195000,-0.017545,0.012893,-0.026014
7.215000,-0.017703,0.013272,-0.025885
7.235000,-0.017561,0.013644,-0.025807
7.255000,-0.017346,0.014074,-0.025698
7.275000,-0.017409,0.014451,-0.025463
7.295000,-0.017536,0.014685,-0.025321
7.315000,-0.017787,0.014874,-0.025188
7.335000,-0.018228,0.015310,-0.025129
7.355000,-0.018827,0.015393,-0.025021
7.375000,-0.019502,0.015317,-0.024936
7.395000,-0.020350,0.015384,-0.024790
7.415000,-0.021252,0.015603,-0.024524
7.435000,-0.022547,0.015922,-0.023896
7.455000,-0.023961,0.016263,-0.023349
7.475000,-0.025276,0.016546,-0.022953
7.495000,-0.026487,0.016739,-0.022633
7.515000,-0.027414,0.016860,-0.022487
7.535000,-0.028039,0.016806,-0.022518
7.555000,-0.028334,0.016806,-0.022594
7.575000,-0.028367,0.016809,-0.022598
7.595000,-0.028167,0.016647,-0.022729
7.615000,-0.027756,0.016447,-0.023104
7.635000,-0.027198,0.016419,-0.023550
7.655000,-0.026587,0.016393,-0.023837
7.675000,-0.026019,0.016262,-0.023934
7.695000,-0.025339,0.016170,-0.024093
7.715000,-0.024742,0.016342,-0.024196
7.735000,-0.024472,0.016659,-0.024056
7.755000,-0.024468,0.016854,-0.023783
7.775000,-0.024533,0.016885,-0.023534
7.795000,-0.024682,0.016936,-0.023299
7.815000,-0.024897,0.017200,-0.023035
7.835000,-0.025019,0.017761,-0.022708
7.855000,-0.024795,0.018433,-0.022253
7.875000,-0.024006,0.019287,-0.022041
7.895000,-0.022608,0.020406,-0.021999
7.915000,-0.021396,0.021452,-0.021568
7.935000,-0.021497,0.022568,-0.020830
7.955000,-0.022512,0.023725,-0.020148
7.975000,-0.024308,0.024726,-0.019687
7.995000,-0.027090,0.025634,-0.018947
8.015000,-0.029969,0.026535,-0.018493
8.035000,-0.033409,0.027081,-0.017908
8.055000,-0.037298,0.027285,-0.017292
8.075000,-0.040347,0.027577,-0.016962
8.095000,-0.041864,0.027803,-0.016786
