accel_time_list,accel_x_list,accel_y_list,accel_z_list
0.010000,-8.291121,-2.217031,4.654328
0.030000,-8.355764,-2.193089,4.659117
0.050000,-8.573027,-2.345568,4.568929
0.070000,-8.742329,-2.294689,4.379191
0.090000,-8.736786,-2.466699,4.177884
0.110000,-8.587405,-2.450444,4.098874
0.130000,-8.547552,-2.325503,4.085652
0.150000,-8.560898,-2.255701,4.073041
0.170000,-8.674128,-2.180205,4.019250
0.190000,-8.579335,-2.057164,3.968620
0.210000,-8.463575,-1.896645,3.972265
0.230000,-8.431416,-1.760835,3.970003
0.250000,-8.419424,-1.665415,3.957781
0.270000,-8.394630,-1.605386,3.948189
0.290000,-8.370208,-1.573144,3.943790
0.310000,-8.368490,-1.560790,3.944517
0.330000,-8.379408,-1.569082,3.941004
0.350000,-8.388120,-1.583492,3.934370
0.370000,-8.400466,-1.599406,3.933180
0.390000,-8.421493,-1.613797,3.932232
0.410000,-8.440402,-1.623008,3.929175
0.430000,-8.454304,-1.626374,3.925957
0.450000,-8.463620,-1.626341,3.922281
0.470000,-8.470481,-1.625362,3.917495
0.490000,-8.473385,-1.624263,3.911730
0.510000,-8.475963,-1.626648,3.906221
0.530000,-8.474836,-1.627169,3.899225
0.550000,-8.469705,-1.622623,3.889066
0.570000,-8.466136,-1.616494,3.879089
0.590000,-8.461484,-1.612626,3.870990
0.610000,-8.454490,-1.608773,3.863803
0.630000,-8.449336,-1.602188,3.855296
0.650000,-8.446009,-1.591060,3.845208
0.670000,-8.446104,-1.576955,3.829895
0.690000,-8.446763,-1.560030,3.812439
0.710000,-8.449594,-1.542104,3.794850
0.730000,-8.456432,-1.521796,3.773955
0.750000,-8.464354,-1.498377,3.748761
0.770000,-8.465673,-1.472419,3.717025
0.790000,-8.462066,-1.434766,3.670389
0.810000,-8.450975,-1.388904,3.617358
0.830000,-8.432707,-1.335238,3.563719
0.850000,-8.414493,-1.283182,3.510600
0.870000,-8.395981,-1.234026,3.453470
0.890000,-8.375708,-1.188149,3.392726
0.910000,-8.356985,-1.146964,3.331742
0.930000,-8.342160,-1.110655,3.271889
0.950000,-8.329208,-1.077727,3.209797
0.970000,-8.317876,-1.048838,3.143962
0.990000,-8.312529,-1.022823,3.073678
1.010000,-8.311402,-0.998678,2.999466
1.030000,-8.313692,-0.969795,2.922474
1.050000,-8.326146,-0.933196,2.840833
1.070000,-8.347066,-0.890487,2.755292
1.090000,-8.371844,-0.843892,2.668813
1.110000,-8.397672,-0.798894,2.586114
1.130000,-8.423583,-0.755532,2.505319
1.150000,-8.447410,-0.716639,2.434080
1.170000,-8.466805,-0.684594,2.375224
1.190000,-8.482672,-0.659406,2.327299
1.210000,-8.494065,-0.634263,2.282785
1.230000,-8.497341,-0.604631,2.238289
1.250000,-8.494884,-0.569931,2.193412
1.270000,-8.495843,-0.530306,2.146692
1.290000,-8.500299,-0.486545,2.100356
1.310000,-8.503803,-0.443522,2.056751
1.330000,-8.513746,-0.406255,2.008628
1.350000,-8.527035,-0.376327,1.953476
1.370000,-8.535395,-0.344981,1.893799
1.390000,-8.537777,-0.306324,1.829228
1.410000,-8.535468,-0.261927,1.764588
1.430000,-8.528098,-0.212668,1.703887
1.450000,-8.514930,-0.159442,1.651888
1.470000,-8.496924,-0.107833,1.605593
1.490000,-8.476070,-0.062126,1.563753
1.510000,-8.453993,-0.023318,1.525778
1.530000,-8.429132,0.010866,1.492938
1.550000,-8.397900,0.041685,1.465599
1.570000,-8.363861,0.074990,1.442499
1.590000,-8.341332,0.111776,1.419481
1.610000,-8.329842,0.150424,1.401648
1.630000,-8.313626,0.180957,1.388203
1.650000,-8.286843,0.196323,1.367438
1.670000,-8.260202,0.204342,1.344602
1.690000,-8.237562,0.219306,1.330373
1.710000,-8.209927,0.226719,1.315678
1.730000,-8.179335,0.217499,1.300846
1.750000,-8.137915,0.196959,1.275282
1.770000,-8.074680,0.193116,1.250384
1.790000,-7.984857,0.233808,1.211593
1.810000,-7.876544,0.279861,1.139252
1.830000,-7.751200,0.286038,1.000597
1.850000,-7.597977,0.266016,0.745348
1.870000,-7.366688,0.207807,0.228993
1.890000,-6.973951,-0.000293,-0.580414
1.910000,-7.170125,-0.908563,-0.116083
1.930000,-9.458953,-4.588606,4.095695
1.950000,-7.366322,-3.286845,-7.873665
1.970000,-5.712813,6.529493,-8.961069
1.990000,-3.577582,9.279303,8.843100
2.061000,1.183306,2.674927,-4.455634
2.081000,-1.834471,5.106020,-7.983830
2.101000,-0.041233,10.380610,-4.210513
2.121000,1.151138,11.441553,1.793940
2.141000,-1.954348,5.871284,5.909018
2.161000,-1.269186,0.429755,6.234038
2.181000,0.330041,1.044721,5.866192
2.201000,0.300645,2.332302,6.471769
2.221000,-0.291508,1.659515,7.084853
2.241000,-0.503604,-0.444025,7.119997
2.261000,-0.763353,-2.301798,7.294815
2.281000,-0.814779,-2.635192,7.492999
2.301000,-1.151029,-2.406325,7.553001
2.321000,-1.774211,-2.506013,7.389464
2.341000,-1.964637,-2.918520,7.048513
2.361000,-1.558577,-3.614285,6.876402
2.381000,-0.703459,-4.127808,7.286186
2.401000,0.080872,-4.797810,8.026045
2.421000,0.069390,-6.363327,8.074964
2.441000,0.257607,-7.866953,7.657123
2.461000,0.461738,-8.493815,7.149903
2.481000,0.549233,-8.446038,6.666883
2.501000,0.543829,-8.107759,6.389084
2.521000,0.476708,-7.706753,6.442644
2.541000,0.342322,-7.462820,6.663786
2.562000,0.153474,-7.424992,6.805317
2.582000,0.027086,-7.458758,6.871353
2.602000,-0.037797,-7.421752,6.926903
2.622000,-0.114742,-7.307632,7.025575
2.642000,-0.217949,-7.189929,7.153876
2.662000,-0.335196,-7.050821,7.297256
2.682000,-0.442198,-6.861207,7.442391
2.702000,-0.500076,-6.728754,7.541099
2.722000,-0.542137,-6.680545,7.593456
2.742000,-0.569625,-6.672808,7.604402
2.762000,-0.577035,-6.701543,7.580681
2.782000,-0.574368,-6.758502,7.538154
2.802000,-0.578741,-6.823934,7.508221
2.822000,-0.594114,-6.886451,7.494825
2.842000,-0.614774,-6.948630,7.484346
2.862000,-0.636297,-7.008165,7.474459
2.882000,-0.654539,-7.050783,7.469518
2.902000,-0.668492,-7.068120,7.476701
2.922000,-0.681979,-7.062530,7.494879
2.942000,-0.694662,-7.035243,7.515464
2.962000,-0.706830,-6.998559,7.534832
2.982000,-0.717876,-6.964314,7.552780
3.002000,-0.726270,-6.935323,7.569346
3.022000,-0.733314,-6.915990,7.585650
3.042000,-0.739446,-6.906250,7.597482
3.062000,-0.744998,-6.906205,7.606134
3.082000,-0.750965,-6.912064,7.610033
3.102000,-0.755518,-6.916925,7.611240
3.122000,-0.761000,-6.923554,7.611556
3.142000,-0.770429,-6.930778,7.613282
3.162000,-0.780133,-6.933868,7.617342
3.182000,-0.789017,-6.934839,7.620321
3.202000,-0.797799,-6.935695,7.624199
3.222000,-0.805774,-6.935950,7.630497
3.242000,-0.813795,-6.933720,7.637462
3.262000,-0.819490,-6.928537,7.642559
3.282000,-0.824075,-6.923880,7.646060
3.302000,-0.828932,-6.922081,7.649414
3.322000,-0.833399,-6.922952,7.651661
3.342000,-0.838133,-6.925346,7.652565
3.362000,-0.843264,-6.928745,7.653924
3.382000,-0.848111,-6.931588,7.656238
3.402000,-0.853478,-6.933100,7.659123
3.422000,-0.858017,-6.932018,7.661485
3.442000,-0.861902,-6.928889,7.663441
3.462000,-0.864374,-6.926404,7.666264
3.482000,-0.867756,-6.925045,7.668768
3.502000,-0.872348,-6.926452,7.669976
3.522000,-0.875234,-6.928349,7.670631
3.542000,-0.878232,-6.929778,7.671223
3.562000,-0.882234,-6.931809,7.672163
3.582000,-0.885589,-6.934156,7.673234
3.602000,-0.888997,-6.935538,7.673118
3.622000,-0.891912,-6.935961,7.673162
3.642000,-0.895468,-6.936288,7.674358
3.662000,-0.898844,-6.936244,7.676048
3.682000,-0.902047,-6.936555,7.676865
3.702000,-0.905453,-6.938603,7.676481
3.722000,-0.908361,-6.940741,7.676145
3.742000,-0.910541,-6.942777,7.676140
3.762000,-0.913262,-6.944901,7.675045
3.782000,-0.915208,-6.947402,7.674640
3.802000,-0.917654,-6.949507,7.674006
3.822000,-0.919794,-6.951196,7.673425
3.842000,-0.921845,-6.953153,7.672726
3.862000,-0.924340,-6.955195,7.671914
3.882000,-0.926607,-6.957010,7.671383
3.902000,-0.928686,-6.958573,7.671123
3.922000,-0.930905,-6.960394,7.670426
3.942000,-0.933132,-6.962795,7.669779
3.962000,-0.935525,-6.964352,7.669395
3.982000,-0.937673,-6.965709,7.668716
4.002000,-0.939095,-6.967539,7.668144
4.022000,-0.940756,-6.968664,7.668090
4.042000,-0.942257,-6.969606,7.667862
4.123000,-0.944761,-6.971413,7.667147
4.143000,-0.946885,-6.973692,7.665962
4.163000,-0.948148,-6.976429,7.664066
4.183000,-0.949325,-6.978628,7.663194
4.203000,-0.950845,-6.980366,7.662175
4.223000,-0.952415,-6.982500,7.660574
4.243000,-0.953839,-6.984989,7.659280
4.263000,-0.955481,-6.986456,7.658901
4.283000,-0.956842,-6.987074,7.658929
4.303000,-0.958659,-6.988207,7.658614
4.323000,-0.960172,-6.989618,7.657655
4.343000,-0.961256,-6.991353,7.656355
4.363000,-0.962370,-6.993511,7.655107
4.383000,-0.963538,-6.995571,7.654061
4.403000,-0.964940,-6.997563,7.653036
4.423000,-0.966161,-6.999094,7.651931
4.443000,-0.966904,-7.000309,7.651390
4.463000,-0.968107,-7.001137,7.650640
4.483000,-0.969409,-7.001872,7.649928
4.503000,-0.970883,-7.003172,7.648918
4.523000,-0.972013,-7.005349,7.647535
4.543000,-0.972880,-7.007013,7.646620
4.563000,-0.973686,-7.008547,7.646122
4.583000,-0.974723,-7.009784,7.645006
4.603000,-0.976037,-7.010949,7.643710
4.623000,-0.976979,-7.011972,7.642762
4.643000,-0.978103,-7.012864,7.642159
4.663000,-0.979431,-7.013819,7.641610
4.683000,-0.980506,-7.015148,7.640635
4.703000,-0.981355,-7.016560,7.639694
4.723000,-0.982148,-7.018029,7.638427
4.743000,-0.983028,-7.019674,7.637005
4.763000,-0.983709,-7.021280,7.635909
4.783000,-0.984717,-7.022797,7.634751
4.803000,-0.985716,-7.024443,7.633701
4.823000,-0.986441,-7.025833,7.632782
4.843000,-0.987303,-7.027281,7.631703
4.863000,-0.988491,-7.028571,7.630492
4.883000,-0.989571,-7.030207,7.629078
4.903000,-0.990402,-7.032210,7.627941
4.923000,-0.991056,-7.033426,7.627031
4.943000,-0.991943,-7.034559,7.625939
4.963000,-0.992726,-7.035920,7.625169
4.983000,-0.993453,-7.037004,7.624191
5.003000,-0.994316,-7.038340,7.623055
5.023000,-0.995434,-7.039902,7.622026
5.043000,-0.996469,-7.041185,7.621295
5.063000,-0.997111,-7.042624,7.620500
5.083000,-0.997459,-7.043736,7.619832
5.103000,-0.998019,-7.044598,7.619146
5.123000,-0.999052,-7.045787,7.617822
5.143000,-1.000003,-7.047514,7.616534
5.163000,-1.001136,-7.049248,7.615523
5.183000,-1.001899,-7.050342,7.614737
5.203000,-1.002630,-7.051306,7.614031
5.223000,-1.003281,-7.052571,7.612877
5.243000,-1.003951,-7.054063,7.611615
5.263000,-1.005284,-7.055899,7.609743
5.283000,-1.005813,-7.057813,7.607410
5.303000,-1.005739,-7.059156,7.605461
5.323000,-1.005258,-7.059457,7.605159
5.343000,-1.005764,-7.059348,7.605482
5.363000,-1.006504,-7.059767,7.605276
5.383000,-1.007381,-7.061091,7.603635
5.403000,-1.009230,-7.061875,7.602872
5.423000,-1.011109,-7.061718,7.603889
5.443000,-1.012705,-7.061059,7.604943
5.463000,-1.014358,-7.060431,7.606298
5.483000,-1.015347,-7.060025,7.607736
5.503000,-1.015704,-7.058378,7.609446
5.523000,-1.015794,-7.055622,7.609655
5.543000,-1.015908,-7.054665,7.607994
5.563000,-1.016235,-7.055681,7.605871
5.583000,-1.016990,-7.058195,7.603722
5.603000,-1.019701,-7.062336,7.601498
5.623000,-1.023127,-7.068064,7.599512
5.643000,-1.023742,-7.072465,7.596707
5.663000,-1.022411,-7.075363,7.594314
5.683000,-1.021308,-7.076363,7.592927
5.703000,-1.020816,-7.076013,7.591553
5.723000,-1.019897,-7.075738,7.588493
5.743000,-1.020305,-7.075323,7.583740
5.763000,-1.022120,-7.076874,7.580159
5.783000,-1.026240,-7.080661,7.578554
5.803000,-1.031421,-7.083931,7.577587
5.823000,-1.034227,-7.086689,7.576127
5.843000,-1.035975,-7.089324,7.575400
5.863000,-1.037610,-7.090449,7.574512
5.883000,-1.039397,-7.088330,7.570881
5.903000,-1.040782,-7.087525,7.565083
5.923000,-1.041508,-7.089481,7.559893
5.943000,-1.044165,-7.094459,7.553678
5.963000,-1.047993,-7.104510,7.547453
5.983000,-1.052046,-7.112856,7.541722
6.003000,-1.054454,-7.119061,7.535880
6.023000,-1.057197,-7.128124,7.529091
6.043000,-1.059530,-7.138772,7.520455
6.063000,-1.048647,-7.140743,7.509056
6.083000,-1.057841,-7.147482,7.499375
6.103000,-1.056768,-7.153196,7.491275
6.134000,-1.063079,-7.159500,7.484046
6.154000,-1.065904,-7.168853,7.478853
6.174000,-1.070137,-7.179788,7.473401
6.194000,-1.074758,-7.190471,7.465010
6.214000,-1.075790,-7.199753,7.455338
6.234000,-1.075447,-7.202958,7.446697
6.254000,-1.076280,-7.203377,7.439890
6.274000,-1.079572,-7.206880,7.433391
6.294000,-1.080723,-7.212886,7.428010
6.314000,-1.082677,-7.216270,7.424191
6.334000,-1.085473,-7.217490,7.421847
6.354000,-1.089103,-7.219584,7.418736
6.374000,-1.091787,-7.222158,7.413837
6.394000,-1.095283,-7.224540,7.408676
6.414000,-1.094984,-7.226659,7.405050
6.434000,-1.096580,-7.231366,7.401246
6.454000,-1.098878,-7.234661,7.396641
6.474000,-1.101536,-7.234452,7.392633
6.494000,-1.102875,-7.234963,7.390007
6.514000,-1.102428,-7.237959,7.388531
6.534000,-1.103399,-7.241858,7.384676
6.554000,-1.105701,-7.243756,7.378202
6.574000,-1.109655,-7.246161,7.371266
6.594000,-1.112158,-7.250051,7.365429
6.614000,-1.114707,-7.256822,7.359340
6.634000,-1.119458,-7.263334,7.352185
6.654000,-1.119540,-7.269638,7.344863
6.674000,-1.122422,-7.274872,7.338021
6.694000,-1.123265,-7.278259,7.332349
6.714000,-1.124219,-7.281469,7.326279
6.734000,-1.127677,-7.286657,7.320772
6.754000,-1.133686,-7.295600,7.315679
6.774000,-1.133770,-7.300648,7.309728
6.794000,-1.137827,-7.303753,7.303429
6.814000,-1.138228,-7.305199,7.298797
6.834000,-1.139032,-7.308642,7.294977
6.854000,-1.141265,-7.315115,7.288371
6.874000,-1.143715,-7.322002,7.279915
6.894000,-1.147361,-7.326450,7.272956
6.914000,-1.149726,-7.329584,7.268222
6.934000,-1.152211,-7.332592,7.263392
6.954000,-1.154000,-7.339065,7.256144
6.974000,-1.157664,-7.349328,7.247603
6.994000,-1.160620,-7.358243,7.241255
7.014000,-1.160530,-7.357300,7.237891
7.034000,-1.162452,-7.353351,7.234704
7.054000,-1.165264,-7.352050,7.232771
7.074000,-1.169293,-7.354761,7.231575
7.094000,-1.173211,-7.359815,7.230103
7.114000,-1.176179,-7.356295,7.228623
7.134000,-1.179189,-7.355516,7.225194
7.154000,-1.183510,-7.363148,7.220291
7.174000,-1.186974,-7.377456,7.212588
7.194000,-1.187650,-7.378261,7.207404
7.214000,-1.184249,-7.370079,7.205264
7.234000,-1.183851,-7.370527,7.203984
7.254000,-1.188293,-7.370371,7.204896
7.274000,-1.193289,-7.367823,7.204937
7.294000,-1.195506,-7.362763,7.204977
7.314000,-1.190231,-7.358663,7.204346
7.334000,-1.192454,-7.368060,7.199891
7.354000,-1.197577,-7.373292,7.194738
7.374000,-1.197500,-7.374067,7.189421
7.394000,-1.192947,-7.375384,7.183894
7.414000,-1.191887,-7.377407,7.179476
7.434000,-1.192394,-7.384198,7.174048
7.454000,-1.196512,-7.391950,7.167478
7.474000,-1.197595,-7.398883,7.160470
7.494000,-1.202258,-7.404166,7.157412
7.514000,-1.203739,-7.409612,7.154934
7.534000,-1.203673,-7.412059,7.149848
7.554000,-1.204469,-7.413882,7.138970
7.574000,-1.205880,-7.415448,7.131793
7.594000,-1.213358,-7.415011,7.128997
7.614000,-1.223706,-7.416566,7.130922
7.634000,-1.230598,-7.421840,7.134480
7.654000,-1.242282,-7.415306,7.139797
7.674000,-1.253346,-7.418725,7.143577
7.694000,-1.259560,-7.416651,7.146745
7.714000,-1.260874,-7.410695,7.144733
7.734000,-1.261362,-7.417033,7.139366
7.754000,-1.263856,-7.420411,7.137835
7.774000,-1.269652,-7.416357,7.142377
7.794000,-1.274840,-7.408537,7.146921
7.814000,-1.279498,-7.405033,7.147565
7.834000,-1.287939,-7.407812,7.148299
7.854000,-1.294597,-7.409152,7.151946
7.874000,-1.296950,-7.407317,7.153138
7.894000,-1.298441,-7.407273,7.151733
7.914000,-1.303222,-7.404308,7.152880
7.934000,-1.306781,-7.400918,7.158253
7.954000,-1.309443,-7.396053,7.162519
7.974000,-1.311169,-7.394206,7.164803
7.994000,-1.312997,-7.388690,7.168524
8.014000,-1.314137,-7.381745,7.173429
8.034000,-1.315767,-7.374510,7.178022
8.054000,-1.319369,-7.369359,7.181803
8.074000,-1.323366,-7.369000,7.185905
8.094000,-1.327873,-7.363593,7.191283
8.114000,-1.331402,-7.357138,7.197828
