gyro_time_list,gyro_x_list,gyro_y_list,gyro_z_list
0.708,-0.291643,-0.189055,0.529994
0.728,-0.328015,-0.164341,0.544183
0.748,-0.3217,-0.152405,0.5686
0.768,-0.302365,-0.152241,0.590704
0.788,-0.291394,-0.153183,0.604808
0.808,-0.2765,-0.156079,0.613923
0.828,-0.250901,-0.162798,0.61446
0.848,-0.227289,-0.167975,0.604752
0.868,-0.212313,-0.171394,0.59213
0.888,-0.210653,-0.175146,0.577419
0.908,-0.218458,-0.181977,0.561617
0.928,-0.231187,-0.191943,0.543283
0.948,-0.248239,-0.203477,0.523406
0.968,-0.271614,-0.21526,0.503811
0.988,-0.300755,-0.227703,0.485876
1.008,-0.330882,-0.24176,0.469771
1.028,-0.35744,-0.256034,0.454613
1.048,-0.379836,-0.267396,0.439057
1.068,-0.399531,-0.274388,0.423267
1.088,-0.418652,-0.277039,0.408208
1.108,-0.436649,-0.275931,0.395416
1.128,-0.450645,-0.271381,0.385505
1.148,-0.458122,-0.263594,0.378294
1.168,-0.457698,-0.252982,0.372691
1.188,-0.450283,-0.239848,0.367195
1.208,-0.438159,-0.224334,0.360689
1.228,-0.424032,-0.207133,0.352492
1.248,-0.410884,-0.1891,0.3426
1.268,-0.400465,-0.171189,0.331962
1.288,-0.392739,-0.15459,0.321563
1.308,-0.385302,-0.140113,0.311516
1.328,-0.376406,-0.126985,0.302106
1.348,-0.367096,-0.113414,0.295842
1.368,-0.357088,-0.101426,0.29377
1.388,-0.344842,-0.093924,0.293741
1.408,-0.327232,-0.088589,0.294278
1.428,-0.300004,-0.082851,0.294247
1.448,-0.263968,-0.077285,0.292226
1.468,-0.22303,-0.074148,0.287674
1.488,-0.179404,-0.073943,0.280136
1.508,-0.131973,-0.075436,0.269762
1.528,-0.082382,-0.077227,0.25653
1.548,-0.034074,-0.079523,0.241403
1.568,0.011445,-0.083117,0.225484
1.588,0.055303,-0.089556,0.209581
1.608,0.097969,-0.098972,0.193774
1.628,0.137846,-0.110503,0.177987
1.648,0.172773,-0.123836,0.16151
1.668,0.202799,-0.138753,0.143503
1.688,0.227542,-0.154885,0.12332
1.708,0.244008,-0.170685,0.100409
1.728,0.250786,-0.185827,0.074702
1.748,0.24804,-0.200249,0.047017
1.768,0.238801,-0.214422,0.018149
1.788,0.231679,-0.227909,-0.011086
1.808,0.233184,-0.240837,-0.039451
1.828,0.242372,-0.253099,-0.066735
1.848,0.258489,-0.265467,-0.093504
1.868,0.285341,-0.280052,-0.119131
1.888,0.32787,-0.296172,-0.142828
1.908,0.379131,-0.313578,-0.168632
1.928,0.429538,-0.333754,-0.196919
1.948,0.477564,-0.358098,-0.229168
1.968,0.528209,-0.384193,-0.266188
1.988,0.5844,-0.410273,-0.30712
2.008,0.634737,-0.436973,-0.350674
2.028,0.675364,-0.468177,-0.394077
2.048,0.723022,-0.501246,-0.429715
2.068,0.786097,-0.52784,-0.444782
2.088,0.851141,-0.546429,-0.426139
2.108,0.907915,-0.563379,-0.382132
2.128,0.950452,-0.58122,-0.330252
2.148,0.966886,-0.60199,-0.292758
2.168,0.985676,-0.607539,-0.277288
2.188,1.045816,-0.568986,-0.254671
2.208,1.115435,-0.490318,-0.183509
2.228,1.087485,-0.3731,-0.130003
2.248,0.95043,-0.227618,-0.061114
2.268,0.741432,-0.373125,-0.171215
2.288,0.508419,-0.529387,-0.322002
2.308,0.254337,-0.318269,-0.270694
2.328,0.194887,-0.162717,-0.224791
2.348,-0.065235,-0.103278,-0.389967
2.368,-0.249569,-0.108795,-0.365562
2.388,-0.395401,-0.146654,-0.355859
2.408,-0.377086,-0.189321,-0.359868
2.428,-0.350384,-0.209077,-0.303499
2.448,-0.465463,-0.226074,-0.260221
2.468,-0.640954,-0.246378,-0.222469
2.488,-0.81181,-0.278595,-0.185322
2.508,-0.825052,-0.304254,-0.14962
2.528,-0.694554,-0.303248,-0.11279
2.548,-0.540638,-0.295446,-0.084455
2.568,-0.432244,-0.284534,-0.070338
2.588,-0.355825,-0.273152,-0.054654
2.608,-0.32503,-0.261807,-0.040872
2.628,-0.300802,-0.251798,-0.029288
2.648,-0.271851,-0.244988,-0.02393
2.668,-0.248359,-0.243055,-0.024542
2.688,-0.241566,-0.243451,-0.028409
2.832,-0.152729,-0.231667,-0.027483
2.852,-0.084519,-0.220176,-0.027535
2.872,-0.043539,-0.208936,-0.027446
2.892,-0.032384,-0.199753,-0.028296
2.912,-0.04988,-0.19234,-0.032511
2.932,-0.092216,-0.186694,-0.040795
2.952,-0.15629,-0.182642,-0.049933
2.972,-0.23299,-0.18003,-0.057837
2.992,-0.308923,-0.178672,-0.062802
3.012,-0.366802,-0.177161,-0.063905
3.032,-0.391525,-0.17419,-0.06142
3.052,-0.381179,-0.169577,-0.056225
3.072,-0.351936,-0.164026,-0.050188
3.092,-0.322181,-0.158635,-0.044557
3.112,-0.300215,-0.153999,-0.039846
3.132,-0.28698,-0.150357,-0.036859
3.152,-0.280037,-0.147641,-0.035662
3.172,-0.273299,-0.14511,-0.035097
3.192,-0.263805,-0.142338,-0.034365
3.212,-0.250123,-0.13928,-0.033345
3.232,-0.234213,-0.136069,-0.032337
3.252,-0.221845,-0.132887,-0.031785
3.272,-0.216322,-0.12994,-0.031939
3.292,-0.215118,-0.127267,-0.032629
3.312,-0.214527,-0.124658,-0.033426
3.332,-0.212851,-0.121964,-0.033967
3.352,-0.210144,-0.119216,-0.034202
3.372,-0.206311,-0.11649,-0.034248
3.392,-0.202501,-0.113898,-0.034154
3.412,-0.19911,-0.111504,-0.033942
3.432,-0.195593,-0.109245,-0.033616
3.452,-0.191465,-0.106948,-0.032912
3.472,-0.187094,-0.104653,-0.031928
3.492,-0.183101,-0.102521,-0.031047
3.512,-0.179929,-0.100508,-0.030336
3.532,-0.176888,-0.098515,-0.029675
3.552,-0.173653,-0.096533,-0.029035
3.572,-0.170599,-0.094621,-0.028614
3.592,-0.167572,-0.092763,-0.028308
3.612,-0.16459,-0.090894,-0.027982
3.632,-0.1617,-0.089084,-0.027781
3.652,-0.159161,-0.087344,-0.027666
3.672,-0.157064,-0.085696,-0.027569
3.692,-0.154905,-0.08408,-0.027458
3.712,-0.152408,-0.082524,-0.027333
3.732,-0.149884,-0.081019,-0.027142
3.752,-0.147758,-0.079558,-0.026966
3.772,-0.146017,-0.078193,-0.026842
3.792,-0.144625,-0.076851,-0.026639
3.812,-0.143504,-0.075574,-0.026433
3.832,-0.14262,-0.074395,-0.026295
3.852,-0.141709,-0.073257,-0.02614
3.872,-0.140597,-0.072109,-0.025955
3.892,-0.139336,-0.070928,-0.025799
3.912,-0.137727,-0.069725,-0.025672
3.932,-0.135931,-0.06851,-0.02552
3.952,-0.134315,-0.067321,-0.02539
3.972,-0.132991,-0.066192,-0.025265
3.992,-0.131706,-0.065104,-0.025174
4.012,-0.130242,-0.064026,-0.025066
4.032,-0.128644,-0.062936,-0.02492
4.052,-0.127253,-0.061864,-0.024773
4.072,-0.125906,-0.060843,-0.024663
4.092,-0.124682,-0.05983,-0.024527
4.112,-0.12342,-0.05884,-0.024408
4.132,-0.122039,-0.057859,-0.02427
4.152,-0.120768,-0.056873,-0.024085
4.172,-0.119687,-0.055935,-0.023953
4.192,-0.11875,-0.055062,-0.023889
4.212,-0.117827,-0.054205,-0.023855
4.232,-0.116804,-0.053361,-0.023777
4.252,-0.115955,-0.052492,-0.02364
4.272,-0.115329,-0.051667,-0.023519
4.292,-0.114876,-0.050913,-0.023464
4.312,-0.114293,-0.050194,-0.023461
4.332,-0.113388,-0.049448,-0.023386
4.352,-0.112209,-0.048637,-0.023245
4.372,-0.111269,-0.047836,-0.023125
4.392,-0.110714,-0.047086,-0.023063
4.412,-0.11019,-0.046366,-0.023011
4.432,-0.109429,-0.045666,-0.022936
4.452,-0.108529,-0.044959,-0.02279
4.472,-0.107565,-0.044247,-0.022617
4.492,-0.106632,-0.043578,-0.022472
4.512,-0.105841,-0.042952,-0.022394
4.532,-0.1051,-0.042341,-0.02235
4.552,-0.104289,-0.041708,-0.022268
4.572,-0.103379,-0.041048,-0.022159
4.592,-0.102471,-0.04039,-0.02203
4.612,-0.101653,-0.03974,-0.021947
4.632,-0.101064,-0.039148,-0.021939
4.652,-0.100575,-0.038565,-0.021926
4.672,-0.099976,-0.037951,-0.021852
4.692,-0.099273,-0.037318,-0.021744
4.712,-0.098638,-0.036699,-0.021645
4.732,-0.098167,-0.036104,-0.021574
4.752,-0.097744,-0.035534,-0.021537
4.772,-0.097141,-0.034939,-0.021452
4.792,-0.096403,-0.034336,-0.021336
4.812,-0.095772,-0.033758,-0.021255
4.918,-0.095139,-0.033198,-0.021171
4.938,-0.094518,-0.032645,-0.021088
4.958,-0.093899,-0.032092,-0.020982
4.978,-0.093302,-0.03151,-0.020875
4.998,-0.092801,-0.030952,-0.020823
5.018,-0.092428,-0.030404,-0.020773
5.038,-0.092034,-0.029861,-0.020707
5.058,-0.091603,-0.029337,-0.020636
5.078,-0.091116,-0.028818,-0.020513
5.098,-0.090523,-0.028294,-0.020398
5.118,-0.089967,-0.027795,-0.020324
5.138,-0.0895,-0.02731,-0.020287
5.158,-0.089006,-0.026799,-0.02022
5.178,-0.088431,-0.026284,-0.020137
5.198,-0.087846,-0.025784,-0.020067
5.218,-0.087256,-0.025294,-0.019989
5.238,-0.086677,-0.024809,-0.019924
5.258,-0.086033,-0.02434,-0.019833
5.278,-0.085282,-0.023855,-0.019733
5.298,-0.084448,-0.023389,-0.019655
5.318,-0.083233,-0.022979,-0.019528
5.338,-0.081411,-0.022566,-0.019281
5.358,-0.079316,-0.022057,-0.018894
5.378,-0.077409,-0.021624,-0.01867
5.398,-0.076278,-0.021433,-0.018864
5.418,-0.075529,-0.02135,-0.019231
5.438,-0.07519,-0.021319,-0.019934
5.458,-0.075455,-0.021169,-0.020697
5.478,-0.076147,-0.021044,-0.021752
5.498,-0.075988,-0.021015,-0.022588
5.518,-0.074173,-0.021,-0.022938
5.538,-0.070985,-0.020994,-0.022821
5.558,-0.067753,-0.021045,-0.022571
5.578,-0.064892,-0.021302,-0.022483
5.598,-0.062085,-0.021628,-0.022673
5.618,-0.058945,-0.021695,-0.022362
5.638,-0.056935,-0.021745,-0.021848
5.658,-0.055862,-0.022387,-0.021739
5.678,-0.053631,-0.023366,-0.022196
5.698,-0.049738,-0.023629,-0.022291
5.718,-0.045041,-0.023209,-0.022148
5.738,-0.041373,-0.023062,-0.022639
5.758,-0.040431,-0.023283,-0.02323
5.778,-0.041683,-0.023046,-0.023481
5.798,-0.042108,-0.022425,-0.023307
5.818,-0.039525,-0.02183,-0.022937
5.838,-0.035049,-0.021485,-0.022368
5.858,-0.029546,-0.021256,-0.021527
5.878,-0.023065,-0.020913,-0.020485
5.898,-0.015945,-0.020399,-0.019349
5.918,-0.008759,-0.019859,-0.017955
5.938,-0.002284,-0.019428,-0.01633
5.958,0.003416,-0.019048,-0.01493
5.978,0.007418,-0.018944,-0.014019
5.998,0.008096,-0.019278,-0.013563
6.018,0.005918,-0.019969,-0.013579
6.038,0.002796,-0.020747,-0.013815
6.058,-0.000651,-0.021269,-0.014175
6.078,-0.004343,-0.021637,-0.014609
6.098,-0.007072,-0.021736,-0.015185
6.118,-0.009304,-0.021584,-0.015855
6.138,-0.013534,-0.021491,-0.016629
6.158,-0.019152,-0.021669,-0.017706
6.178,-0.022845,-0.021723,-0.018753
6.198,-0.024403,-0.021461,-0.01943
6.218,-0.025517,-0.02104,-0.019977
6.238,-0.026781,-0.020528,-0.020682
6.258,-0.028186,-0.019936,-0.02145
6.278,-0.029326,-0.01916,-0.0221
6.298,-0.029769,-0.018318,-0.022367
6.318,-0.029993,-0.01763,-0.022472
6.338,-0.029906,-0.017115,-0.022426
6.358,-0.029224,-0.016724,-0.022272
6.378,-0.02825,-0.016204,-0.021896
6.398,-0.027116,-0.015425,-0.021147
6.418,-0.025657,-0.014843,-0.020727
6.438,-0.023511,-0.014175,-0.02071
6.458,-0.02094,-0.012715,-0.019561
6.478,-0.018981,-0.011046,-0.018463
6.498,-0.016956,-0.009619,-0.018041
6.518,-0.015353,-0.008244,-0.017786
6.538,-0.014288,-0.006693,-0.017462
6.558,-0.015026,-0.004743,-0.017222
6.578,-0.01574,-0.002608,-0.016938
6.598,-0.015716,0.000296,-0.016229
6.618,-0.014978,0.003253,-0.014213
6.638,-0.013702,0.005463,-0.013973
6.658,-0.014139,0.006703,-0.014989
6.678,-0.013425,0.007362,-0.01689
6.698,-0.010328,0.008128,-0.018023
6.718,-0.006798,0.00897,-0.017739
6.738,-0.005452,0.009427,-0.017704
6.758,-0.00516,0.009707,-0.018382
6.778,-0.004263,0.010125,-0.01907
6.798,-0.003117,0.010552,-0.018859
6.818,-0.002803,0.010754,-0.018792
6.838,-0.003395,0.011077,-0.018606
6.858,-0.003951,0.01144,-0.018444
6.878,-0.004341,0.011835,-0.018606
6.898,-0.004285,0.012036,-0.018588
