gyro_time_list,gyro_x_list,gyro_y_list,gyro_z_list
0.310000,-1.852314,1.984213,2.386305
0.330000,-1.876895,1.896147,2.366187
0.350000,-1.771694,1.808793,2.344764
0.370000,-1.635626,1.725599,2.319324
0.390000,-1.571316,1.633237,2.270355
0.410000,-1.571773,1.524321,2.196514
0.430000,-1.552702,1.394408,2.113519
0.450000,-1.494579,1.246754,2.022667
0.470000,-1.429584,1.088719,1.920346
0.490000,-1.374751,0.928536,1.809561
0.510000,-1.324421,0.769643,1.695784
0.530000,-1.279475,0.612809,1.581729
0.550000,-1.244526,0.460404,1.469461
0.570000,-1.210846,0.315841,1.361957
0.590000,-1.168252,0.181555,1.261859
0.610000,-1.117194,0.058659,1.170527
0.630000,-1.065371,-0.051277,1.087449
0.650000,-1.018235,-0.149845,1.011814
0.670000,-0.977179,-0.239793,0.941732
0.690000,-0.941167,-0.320182,0.876639
0.710000,-0.907083,-0.391270,0.815328
0.730000,-0.872199,-0.456078,0.757633
0.750000,-0.836948,-0.517272,0.702740
0.770000,-0.801527,-0.574585,0.650507
0.790000,-0.765984,-0.627283,0.600525
0.810000,-0.728034,-0.677859,0.554079
0.830000,-0.688029,-0.727239,0.509980
0.850000,-0.648343,-0.773475,0.468418
0.870000,-0.608237,-0.817366,0.430138
0.890000,-0.565436,-0.862027,0.396045
0.910000,-0.523961,-0.907232,0.366013
0.930000,-0.491910,-0.948627,0.338053
0.950000,-0.472619,-0.981686,0.310573
0.970000,-0.459958,-1.010800,0.285540
0.990000,-0.447590,-1.040498,0.262884
1.010000,-0.435705,-1.071368,0.242425
1.030000,-0.428089,-1.096951,0.222438
1.050000,-0.423178,-1.114395,0.200637
1.070000,-0.416217,-1.126538,0.180651
1.090000,-0.410008,-1.139162,0.162854
1.110000,-0.411580,-1.150923,0.147292
1.130000,-0.431096,-1.157235,0.136243
1.150000,-0.479122,-1.160329,0.122540
1.170000,-0.554106,-1.161764,0.102550
1.190000,-0.626428,-1.170459,0.077461
1.210000,-0.668925,-1.186190,0.041106
1.230000,-0.683085,-1.195861,-0.012798
1.250000,-0.676718,-1.176536,-0.075933
1.270000,-0.664342,-1.059995,-0.109265
1.290000,-0.677352,-0.872275,-0.062201
1.310000,-0.758546,-0.659861,0.022121
1.330000,-0.867294,-0.833475,-0.045792
1.350000,-0.778881,-1.012356,-0.183764
1.370000,-0.584258,-1.160874,-0.266537
1.390000,-0.465287,-1.340682,-0.263893
1.410000,-0.643561,-1.519032,-0.286029
1.430000,-0.810000,-1.693746,-0.408465
1.450000,-0.757726,-1.813667,-0.494125
1.470000,-0.537624,-1.808941,-0.535145
1.490000,-0.322656,-1.712138,-0.543433
1.510000,-0.203614,-1.586904,-0.535406
1.530000,-0.148610,-1.469977,-0.560429
1.550000,-0.093751,-1.395261,-0.568485
1.570000,-0.042736,-1.352127,-0.568825
1.590000,-0.020342,-1.290759,-0.565891
1.610000,-0.032772,-1.193099,-0.551981
1.630000,-0.077657,-1.067294,-0.534887
1.650000,-0.127533,-0.918879,-0.515181
1.670000,-0.163823,-0.753325,-0.487912
1.690000,-0.196789,-0.576584,-0.459191
1.710000,-0.235827,-0.394847,-0.428664
1.730000,-0.275044,-0.200720,-0.395006
1.750000,-0.308375,0.027287,-0.356335
1.770000,-0.353063,0.305993,-0.316263
1.790000,-0.405240,0.607860,-0.274626
1.810000,-0.442140,0.905005,-0.227061
1.830000,-0.441118,1.191392,-0.168815
1.850000,-0.398426,1.462352,-0.107754
1.870000,-0.259028,1.714745,-0.045729
1.890000,-0.219223,1.641099,0.028531
1.910000,-0.182984,1.249210,-0.078259
1.930000,-0.049429,0.988310,-0.142609
1.950000,0.099434,0.834638,-0.130544
1.970000,0.162745,0.761094,-0.131722
1.990000,0.145832,0.700865,-0.140547
2.010000,0.105377,0.624618,-0.141117
2.030000,0.087338,0.559051,-0.140070
2.050000,0.092157,0.526951,-0.142240
2.070000,0.099476,0.549306,-0.140215
2.090000,0.141515,0.623308,-0.137570
2.110000,0.219936,0.712348,-0.117328
2.130000,0.219341,0.719817,-0.104181
2.150000,0.118806,0.638157,-0.109104
2.170000,-0.030090,0.532556,-0.114712
2.190000,-0.126004,0.452734,-0.114439
2.210000,-0.113100,0.417273,-0.112557
2.230000,-0.034478,0.406461,-0.111064
2.250000,0.047930,0.404649,-0.105721
2.270000,0.077882,0.406623,-0.099081
2.290000,0.039489,0.402298,-0.093007
2.322000,-0.029037,0.382082,-0.090017
2.342000,-0.069812,0.357025,-0.089319
2.362000,-0.070736,0.333545,-0.090870
2.382000,-0.051921,0.314781,-0.091411
2.402000,-0.037621,0.299190,-0.090593
2.422000,-0.037863,0.285188,-0.088322
2.442000,-0.049393,0.272767,-0.085577
2.462000,-0.060811,0.263529,-0.083000
2.482000,-0.066092,0.257158,-0.081111
2.502000,-0.065540,0.250868,-0.080213
2.522000,-0.062156,0.243580,-0.080007
2.542000,-0.059438,0.236121,-0.079897
2.562000,-0.059848,0.228522,-0.079908
2.582000,-0.060258,0.219642,-0.079515
2.602000,-0.058126,0.211126,-0.078680
2.622000,-0.056204,0.204737,-0.077775
2.642000,-0.056945,0.199701,-0.076757
2.662000,-0.060254,0.194616,-0.075521
2.682000,-0.065663,0.189739,-0.074453
2.702000,-0.071596,0.186023,-0.073422
2.722000,-0.076922,0.182611,-0.072561
2.742000,-0.080413,0.178770,-0.071925
2.762000,-0.082047,0.174600,-0.071290
2.782000,-0.083243,0.170476,-0.070831
2.802000,-0.084296,0.166161,-0.070329
2.822000,-0.083427,0.161891,-0.069148
2.842000,-0.080567,0.158487,-0.067896
2.862000,-0.078419,0.155508,-0.066786
2.882000,-0.077977,0.152596,-0.065726
2.902000,-0.078033,0.149889,-0.064839
2.922000,-0.077223,0.147145,-0.064002
2.942000,-0.076161,0.144707,-0.063242
2.962000,-0.075697,0.142686,-0.062737
2.982000,-0.075340,0.140023,-0.062029
3.002000,-0.074500,0.137470,-0.061154
3.022000,-0.073964,0.135478,-0.060471
3.042000,-0.073936,0.133641,-0.059851
3.062000,-0.073958,0.131945,-0.059349
3.082000,-0.073907,0.130307,-0.059039
3.102000,-0.074254,0.128679,-0.058606
3.122000,-0.076133,0.126824,-0.058021
3.142000,-0.077295,0.124251,-0.057031
3.162000,-0.074208,0.121694,-0.055899
3.182000,-0.068083,0.120179,-0.054789
3.202000,-0.064241,0.119363,-0.053837
3.222000,-0.064910,0.118221,-0.053150
3.242000,-0.067520,0.116447,-0.052462
3.262000,-0.068305,0.114708,-0.051486
3.282000,-0.066679,0.113674,-0.050680
3.302000,-0.064932,0.112780,-0.050229
3.322000,-0.064743,0.111555,-0.049830
3.342000,-0.065718,0.110192,-0.049357
3.362000,-0.065871,0.108882,-0.048602
3.382000,-0.065096,0.108263,-0.047693
3.402000,-0.064723,0.108130,-0.046908
3.422000,-0.064970,0.107747,-0.046514
3.442000,-0.064525,0.107357,-0.046344
3.462000,-0.062602,0.107260,-0.045950
3.482000,-0.060451,0.107352,-0.045329
3.502000,-0.059831,0.107245,-0.044618
3.522000,-0.060769,0.106967,-0.043956
3.542000,-0.061703,0.106774,-0.043406
3.562000,-0.062282,0.106483,-0.042859
3.582000,-0.063168,0.105808,-0.042270
3.602000,-0.064957,0.104917,-0.041685
3.622000,-0.067464,0.104154,-0.041092
3.642000,-0.070077,0.103820,-0.040435
3.662000,-0.072861,0.103606,-0.039826
3.682000,-0.075760,0.103127,-0.039227
3.702000,-0.078679,0.102485,-0.038487
3.722000,-0.081899,0.101796,-0.037760
3.742000,-0.084936,0.101146,-0.037157
3.762000,-0.087430,0.100298,-0.036620
3.782000,-0.090770,0.098802,-0.035790
3.802000,-0.097080,0.097032,-0.034925
3.822000,-0.104516,0.095448,-0.034539
3.842000,-0.107958,0.094234,-0.035091
3.862000,-0.106631,0.092843,-0.035827
3.882000,-0.105201,0.091205,-0.036756
3.902000,-0.106763,0.089868,-0.037382
3.922000,-0.112630,0.087870,-0.037168
3.942000,-0.119373,0.085090,-0.036617
3.962000,-0.122059,0.082856,-0.036204
3.982000,-0.119001,0.082124,-0.035489
4.002000,-0.113934,0.081199,-0.034277
4.022000,-0.110047,0.079301,-0.032494
4.042000,-0.108328,0.077258,-0.030809
4.062000,-0.108491,0.075448,-0.029972
4.082000,-0.109046,0.073938,-0.029169
4.102000,-0.107740,0.072408,-0.027895
4.122000,-0.103818,0.071549,-0.026376
4.142000,-0.100542,0.071717,-0.024545
4.162000,-0.100353,0.072173,-0.022297
4.182000,-0.102285,0.072243,-0.020796
4.202000,-0.102160,0.071858,-0.019323
4.222000,-0.099811,0.071617,-0.017216
4.242000,-0.097720,0.071298,-0.014794
4.262000,-0.095366,0.070311,-0.012558
4.282000,-0.091990,0.068323,-0.008881
4.302000,-0.090742,0.066210,-0.004346
4.344000,-0.092395,0.064505,-0.001862
4.364000,-0.091866,0.062778,0.000424
4.384000,-0.090584,0.061370,0.002329
4.404000,-0.091583,0.060757,0.003293
4.424000,-0.094543,0.060503,0.003109
4.444000,-0.095112,0.059806,0.001969
4.464000,-0.090890,0.058817,0.000923
4.484000,-0.084659,0.057864,0.000493
4.504000,-0.081320,0.056880,-0.000340
4.524000,-0.082677,0.055591,-0.001908
4.544000,-0.087764,0.054105,-0.003638
4.564000,-0.095999,0.052717,-0.004634
4.584000,-0.106319,0.051816,-0.005591
4.604000,-0.115008,0.051265,-0.006802
4.624000,-0.118642,0.050546,-0.007865
4.644000,-0.118775,0.049363,-0.008777
4.664000,-0.119412,0.048081,-0.010013
4.684000,-0.121004,0.047201,-0.011589
4.704000,-0.122424,0.046775,-0.012947
4.724000,-0.125146,0.045956,-0.014663
4.744000,-0.129795,0.044533,-0.016493
4.764000,-0.134305,0.043443,-0.018440
4.784000,-0.136791,0.042790,-0.020129
4.804000,-0.139372,0.041433,-0.021448
4.824000,-0.142840,0.040093,-0.022792
4.844000,-0.145777,0.039563,-0.023390
4.864000,-0.146342,0.039680,-0.023962
4.884000,-0.146642,0.039511,-0.024066
4.904000,-0.147322,0.039096,-0.024517
4.924000,-0.147341,0.038686,-0.025111
4.944000,-0.146145,0.037999,-0.025666
4.964000,-0.143952,0.036863,-0.026210
4.984000,-0.142097,0.035771,-0.026681
5.004000,-0.141658,0.034756,-0.027028
5.024000,-0.142005,0.033939,-0.027544
5.044000,-0.141508,0.033597,-0.027772
5.064000,-0.140248,0.033367,-0.027830
5.084000,-0.139077,0.032754,-0.027930
5.104000,-0.138130,0.031936,-0.028337
5.124000,-0.137529,0.031134,-0.028752
5.144000,-0.136916,0.030679,-0.029076
5.164000,-0.135988,0.030523,-0.029271
5.184000,-0.134816,0.030155,-0.029580
5.204000,-0.133788,0.029791,-0.029686
5.224000,-0.133745,0.029349,-0.029645
5.244000,-0.133810,0.029007,-0.029510
5.264000,-0.134064,0.028703,-0.029489
5.284000,-0.133869,0.028489,-0.029823
5.304000,-0.132751,0.028357,-0.029735
5.324000,-0.131654,0.028230,-0.029505
5.344000,-0.130945,0.027974,-0.029386
5.364000,-0.130121,0.027452,-0.029225
5.384000,-0.129478,0.026807,-0.028797
5.404000,-0.128903,0.026613,-0.028801
5.424000,-0.127619,0.026806,-0.028796
5.444000,-0.126883,0.026371,-0.028786
5.464000,-0.124042,0.026492,-0.028787
5.484000,-0.117391,0.027105,-0.027975
5.504000,-0.112963,0.026850,-0.027524
5.524000,-0.111658,0.026575,-0.027931
5.544000,-0.111086,0.026252,-0.028271
5.564000,-0.111747,0.025940,-0.028420
5.584000,-0.112700,0.025942,-0.028831
5.604000,-0.112357,0.025711,-0.028677
5.624000,-0.111839,0.025372,-0.028605
5.644000,-0.111743,0.024935,-0.028283
5.664000,-0.112248,0.024552,-0.028365
5.684000,-0.111784,0.024284,-0.028320
5.704000,-0.110855,0.023908,-0.028142
5.724000,-0.109937,0.023505,-0.028030
5.744000,-0.109301,0.022991,-0.027799
5.764000,-0.109280,0.022813,-0.027918
5.784000,-0.109199,0.022796,-0.028218
5.804000,-0.108458,0.022656,-0.028260
5.824000,-0.107561,0.022508,-0.028396
5.844000,-0.107042,0.021852,-0.028217
5.864000,-0.107099,0.021102,-0.028249
5.884000,-0.107804,0.020619,-0.028578
5.904000,-0.107733,0.020577,-0.029169
5.924000,-0.106675,0.020393,-0.029368
5.944000,-0.106452,0.019624,-0.029483
5.964000,-0.106984,0.018828,-0.030021
5.984000,-0.107131,0.018331,-0.030757
6.004000,-0.106900,0.018295,-0.031353
6.024000,-0.106423,0.018457,-0.031519
6.044000,-0.105646,0.018494,-0.031449
6.064000,-0.104736,0.018308,-0.031489
6.084000,-0.103907,0.018151,-0.031616
6.104000,-0.103020,0.018150,-0.031567
6.124000,-0.102498,0.018015,-0.031407
6.144000,-0.101903,0.017724,-0.031417
6.164000,-0.101138,0.017491,-0.031385
6.184000,-0.100476,0.017493,-0.031282
6.204000,-0.100020,0.017365,-0.031147
6.224000,-0.099517,0.017099,-0.030942
6.244000,-0.099113,0.017061,-0.030712
6.264000,-0.099140,0.017289,-0.030552
6.284000,-0.099246,0.017416,-0.030473
6.304000,-0.098879,0.017330,-0.030495
6.324000,-0.097891,0.017230,-0.030442
