gyro_time_list,gyro_x_list,gyro_y_list,gyro_z_list
0.47,-0.044233,0.020118,-0.023715
0.49,-0.036106,0.022916,-0.019985
0.51,-0.026154,0.021717,-0.018164
0.53,-0.01741,0.023549,-0.017953
0.55,-0.01136,0.020677,-0.018066
0.57,-0.01438,0.018984,-0.015987
0.59,-0.024835,0.018498,-0.013721
0.61,-0.031014,0.019184,-0.011205
0.63,-0.030512,0.020177,-0.010091
0.65,-0.027554,0.020891,-0.010562
0.67,-0.021191,0.021791,-0.011213
0.69,-0.016286,0.023552,-0.010989
0.71,-0.015674,0.025064,-0.009968
0.73,-0.018764,0.026694,-0.007777
0.75,-0.02214,0.027064,-0.006251
0.77,-0.025465,0.027113,-0.0051
0.79,-0.029374,0.028445,-0.004893
0.81,-0.033823,0.03274,-0.005058
0.83,-0.03967,0.034419,-0.006648
0.85,-0.046415,0.034524,-0.008087
0.87,-0.045249,0.033758,-0.0106
0.89,-0.038295,0.033451,-0.010876
0.91,-0.035599,0.032443,-0.010476
0.93,-0.036739,0.030072,-0.011483
0.95,-0.040163,0.027856,-0.012378
0.97,-0.04216,0.025064,-0.013591
0.99,-0.038912,0.023213,-0.01445
1.01,-0.036117,0.021238,-0.014189
1.03,-0.036372,0.021339,-0.013414
1.05,-0.035843,0.022228,-0.013093
1.07,-0.032525,0.023744,-0.013161
1.09,-0.030986,0.023798,-0.013443
1.11,-0.032576,0.023321,-0.014038
1.13,-0.036787,0.022411,-0.014198
1.15,-0.04153,0.0218,-0.013935
1.17,-0.044499,0.021303,-0.013631
1.19,-0.044132,0.020912,-0.013575
1.21,-0.04144,0.020866,-0.013742
1.23,-0.039129,0.021387,-0.013562
1.25,-0.037881,0.022017,-0.013257
1.27,-0.038832,0.022534,-0.012777
1.29,-0.042498,0.022959,-0.012192
1.31,-0.045821,0.023697,-0.011896
1.33,-0.047712,0.025189,-0.012048
1.35,-0.049307,0.02717,-0.011333
1.37,-0.049386,0.027159,-0.012444
1.39,-0.048964,0.026527,-0.013381
1.41,-0.047467,0.025915,-0.014419
1.43,-0.046032,0.025933,-0.01441
1.45,-0.045854,0.026132,-0.013997
1.47,-0.046103,0.02635,-0.013427
1.49,-0.046819,0.026351,-0.013087
1.51,-0.049634,0.025406,-0.013385
1.53,-0.052553,0.023363,-0.014085
1.55,-0.052495,0.021191,-0.015212
1.57,-0.051173,0.018957,-0.015807
1.59,-0.049392,0.017546,-0.015875
1.61,-0.047859,0.017717,-0.01587
1.63,-0.045797,0.019487,-0.015456
1.65,-0.043473,0.020625,-0.015542
1.67,-0.042233,0.020781,-0.015309
1.69,-0.042719,0.020198,-0.015782
1.71,-0.045527,0.019429,-0.015869
1.73,-0.048833,0.019092,-0.015687
1.75,-0.051048,0.019124,-0.015472
1.77,-0.050697,0.019304,-0.015141
1.79,-0.048414,0.019696,-0.015077
1.81,-0.0464,0.020301,-0.014979
1.83,-0.045831,0.020925,-0.014752
1.85,-0.045699,0.021329,-0.014434
1.87,-0.045048,0.021569,-0.014038
1.89,-0.044995,0.021912,-0.013722
1.91,-0.046878,0.022785,-0.01359
1.93,-0.050042,0.023615,-0.01336
1.95,-0.052544,0.023666,-0.013862
1.97,-0.052723,0.023343,-0.014479
1.99,-0.050867,0.023085,-0.014858
2.01,-0.048869,0.022738,-0.01517
2.03,-0.047462,0.022579,-0.015379
2.05,-0.047017,0.022599,-0.015382
2.07,-0.04759,0.022557,-0.015149
2.09,-0.047299,0.022338,-0.015063
2.11,-0.04663,0.022135,-0.014892
2.13,-0.047313,0.021934,-0.014741
2.15,-0.049071,0.02178,-0.015018
2.17,-0.050179,0.021755,-0.015478
2.19,-0.050098,0.021855,-0.015734
2.21,-0.050148,0.022034,-0.015624
2.23,-0.050935,0.02198,-0.015649
2.25,-0.051889,0.022033,-0.015545
2.27,-0.051936,0.02214,-0.015408
2.29,-0.050074,0.022185,-0.015294
2.31,-0.047261,0.022128,-0.015208
2.33,-0.045712,0.022192,-0.014969
2.35,-0.045987,0.022202,-0.014634
2.37,-0.047619,0.022268,-0.014046
2.39,-0.049339,0.022295,-0.013408
2.41,-0.050448,0.022419,-0.013027
2.43,-0.051458,0.022848,-0.012673
2.45,-0.052902,0.023545,-0.012645
2.653,-0.052697,0.022768,-0.014707
2.673,-0.053336,0.022446,-0.016766
2.693,-0.054397,0.022501,-0.018423
2.713,-0.055653,0.022762,-0.019536
2.733,-0.057196,0.023141,-0.020545
2.753,-0.059047,0.023233,-0.021566
2.773,-0.060633,0.022932,-0.022619
2.793,-0.061325,0.02266,-0.023608
2.813,-0.060608,0.022365,-0.024794
2.833,-0.056968,0.02153,-0.025867
2.853,-0.051687,0.020427,-0.027311
2.873,-0.048145,0.019276,-0.028529
2.893,-0.045801,0.017981,-0.029761
2.913,-0.043552,0.016681,-0.030993
2.933,-0.041418,0.01563,-0.032382
2.953,-0.040199,0.014922,-0.034037
2.973,-0.039693,0.014355,-0.035631
2.993,-0.038813,0.013776,-0.03698
3.013,-0.038779,0.013344,-0.038502
3.033,-0.040004,0.013504,-0.039276
3.053,-0.041213,0.013943,-0.039535
3.073,-0.041906,0.014843,-0.039378
3.093,-0.042245,0.015646,-0.039119
3.113,-0.041707,0.016099,-0.038971
3.133,-0.040152,0.016409,-0.039434
3.153,-0.038078,0.016863,-0.040083
3.173,-0.035583,0.017493,-0.040544
3.193,-0.032398,0.018146,-0.041271
3.213,-0.028145,0.018547,-0.042116
3.233,-0.02332,0.017989,-0.043079
3.253,-0.019063,0.017323,-0.043725
3.273,-0.01584,0.016842,-0.044235
3.293,-0.01314,0.016509,-0.044989
3.313,-0.009452,0.016678,-0.046231
3.333,-0.005462,0.017151,-0.048062
3.353,-0.001726,0.016867,-0.050309
3.373,0.002987,0.015698,-0.052743
3.393,0.008043,0.013325,-0.056795
3.413,0.012022,0.010887,-0.060858
3.433,0.015087,0.008533,-0.064393
3.453,0.017935,0.006681,-0.068015
3.473,0.020414,0.005707,-0.071268
3.493,0.024657,0.005582,-0.073954
3.513,0.030894,0.005917,-0.076319
3.533,0.033208,0.006917,-0.076937
3.553,0.031741,0.008056,-0.076793
3.573,0.029631,0.009227,-0.075692
3.593,0.026184,0.010431,-0.073781
3.613,0.021467,0.011563,-0.070902
3.633,0.015625,0.012822,-0.067834
3.653,0.008868,0.01451,-0.064816
3.673,0.002254,0.015692,-0.062549
3.693,-0.002656,0.016898,-0.060023
3.713,-0.006273,0.017681,-0.057748
3.733,-0.009059,0.01816,-0.055396
3.753,-0.011664,0.019167,-0.052737
3.773,-0.014416,0.020702,-0.050345
3.793,-0.016303,0.022587,-0.048827
3.813,-0.017578,0.025003,-0.047716
3.833,-0.020487,0.027854,-0.047088
3.853,-0.024562,0.030709,-0.047062
3.873,-0.025518,0.032852,-0.047063
3.893,-0.02615,0.034966,-0.04658
3.913,-0.028758,0.035644,-0.044232
3.933,-0.033139,0.034969,-0.043145
3.953,-0.03811,0.034616,-0.041907
3.973,-0.042212,0.034112,-0.041395
3.993,-0.04456,0.034138,-0.041133
4.013,-0.045512,0.034427,-0.040928
4.033,-0.044793,0.034662,-0.040931
4.053,-0.043462,0.034613,-0.040952
4.073,-0.042488,0.034391,-0.040693
4.093,-0.042508,0.03458,-0.040613
4.113,-0.042742,0.034055,-0.039881
4.133,-0.042407,0.032803,-0.0389
4.153,-0.042725,0.031776,-0.037285
4.173,-0.044309,0.030875,-0.035669
4.193,-0.046812,0.030233,-0.033696
4.213,-0.049665,0.029876,-0.0315
4.233,-0.054901,0.029769,-0.029247
4.253,-0.061379,0.029594,-0.026895
4.273,-0.066671,0.029093,-0.025226
4.293,-0.070126,0.028546,-0.0239
4.313,-0.07304,0.028121,-0.022682
4.333,-0.074739,0.027426,-0.022022
4.353,-0.07359,0.026924,-0.021751
4.373,-0.069959,0.026543,-0.021759
4.393,-0.066382,0.026587,-0.021518
4.413,-0.063608,0.026714,-0.021339
4.433,-0.06112,0.026472,-0.021583
4.453,-0.056256,0.025472,-0.02203
4.473,-0.048681,0.024415,-0.022631
4.493,-0.040178,0.023105,-0.023189
4.513,-0.031681,0.021362,-0.02408
4.533,-0.022019,0.019725,-0.025091
4.553,-0.012356,0.018532,-0.026216
4.573,-0.005523,0.017367,-0.02705
4.593,-0.002297,0.016033,-0.02725
4.613,-0.002529,0.014753,-0.026968
4.633,-0.005928,0.013921,-0.026291
4.763,-0.014605,0.012872,-0.022118
4.783,-0.023746,0.012425,-0.017696
4.803,-0.033174,0.011969,-0.013427
4.823,-0.039221,0.010783,-0.009559
4.843,-0.040769,0.009307,-0.006379
4.863,-0.041311,0.008519,-0.004242
4.883,-0.042297,0.007771,-0.002514
4.903,-0.042582,0.006959,-0.001454
4.923,-0.041884,0.006388,-0.000429
4.943,-0.041793,0.006228,-0.000085
4.963,-0.041772,0.006674,-0.000655
4.983,-0.041769,0.007849,-0.002276
5.003,-0.041956,0.009412,-0.00539
5.023,-0.039338,0.01097,-0.008134
5.043,-0.03374,0.011588,-0.011343
5.063,-0.027358,0.011525,-0.014222
5.083,-0.023118,0.011986,-0.016485
5.103,-0.022244,0.01266,-0.019083
5.123,-0.020129,0.013554,-0.020776
5.143,-0.016226,0.01456,-0.021552
5.163,-0.014207,0.014785,-0.022206
5.183,-0.014339,0.014199,-0.022437
5.203,-0.014915,0.013359,-0.022459
5.223,-0.01615,0.012683,-0.021915
5.243,-0.018513,0.011423,-0.02153
5.263,-0.019323,0.010113,-0.020477
5.283,-0.019703,0.00934,-0.01908
5.303,-0.021454,0.009122,-0.017798
5.323,-0.023729,0.009607,-0.016924
5.343,-0.026399,0.010482,-0.016665
5.363,-0.030115,0.011626,-0.017657
5.383,-0.031782,0.012881,-0.018977
5.403,-0.029686,0.013605,-0.020206
5.423,-0.027752,0.014008,-0.02142
5.443,-0.026844,0.01426,-0.02238
5.463,-0.025138,0.014385,-0.022541
5.483,-0.023636,0.014368,-0.022366
5.503,-0.02344,0.014273,-0.021759
5.523,-0.024222,0.013907,-0.02124
5.543,-0.0237,0.013061,-0.020467
5.563,-0.022433,0.012122,-0.020034
5.583,-0.02217,0.010903,-0.019049
5.603,-0.024131,0.008898,-0.018607
5.623,-0.025681,0.007003,-0.018092
5.643,-0.024965,0.00549,-0.017093
5.663,-0.025493,0.004413,-0.016076
5.683,-0.027595,0.004005,-0.015593
5.703,-0.030013,0.004013,-0.016412
5.723,-0.031735,0.004463,-0.018425
5.743,-0.030398,0.004866,-0.020596
5.763,-0.02603,0.00472,-0.022941
5.783,-0.021805,0.003891,-0.025251
5.803,-0.018409,0.003015,-0.027293
5.823,-0.016001,0.002739,-0.028746
5.843,-0.016234,0.002799,-0.030461
5.863,-0.015425,0.002113,-0.031851
5.883,-0.011231,0.000018,-0.032926
5.903,-0.005418,-0.002465,-0.033264
5.923,-0.000723,-0.004817,-0.033262
5.943,0.001766,-0.006785,-0.032861
5.963,0.002383,-0.007961,-0.032176
5.983,0.002925,-0.008894,-0.031462
6.003,0.004236,-0.009815,-0.031042
6.023,0.004127,-0.010299,-0.031205
6.043,0.003392,-0.010914,-0.032208
6.063,0.005692,-0.011847,-0.033586
6.083,0.011916,-0.012564,-0.035214
6.103,0.018982,-0.013139,-0.037213
6.123,0.024323,-0.013622,-0.039322
6.143,0.02718,-0.013934,-0.041101
6.163,0.024486,-0.013755,-0.043135
6.183,0.020829,-0.013412,-0.044538
6.203,0.021029,-0.013222,-0.044538
6.223,0.019752,-0.013166,-0.043213
6.243,0.01161,-0.013286,-0.041244
6.263,-0.001021,-0.013147,-0.038478
6.283,-0.011938,-0.012727,-0.03452
6.303,-0.019919,-0.012065,-0.029966
6.323,-0.02882,-0.011171,-0.025506
6.343,-0.041793,-0.009718,-0.021426
6.363,-0.05633,-0.007741,-0.018178
6.383,-0.065298,-0.006061,-0.015674
6.403,-0.068108,-0.004765,-0.013751
6.423,-0.0692,-0.003272,-0.012338
6.443,-0.071966,-0.001602,-0.011874
6.463,-0.073892,-0.000244,-0.012073
6.483,-0.072365,0.000755,-0.012519
6.503,-0.0686,0.001576,-0.013495
6.523,-0.064337,0.00222,-0.015078
6.543,-0.059563,0.002419,-0.017057
6.563,-0.052754,0.002018,-0.019054
6.583,-0.044229,0.001146,-0.021089
6.603,-0.035694,0.000378,-0.022995
6.623,-0.027562,-0.000389,-0.024537
6.643,-0.021256,-0.000461,-0.025603
6.663,-0.018513,-0.000068,-0.026559
6.683,-0.019175,0.000306,-0.02717
6.703,-0.021032,0.000696,-0.027371
6.723,-0.022829,0.00144,-0.026881
6.743,-0.026297,0.002629,-0.0264
6.823,-0.026502,0.003516,-0.025742
6.843,-0.026181,0.003935,-0.0254
6.863,-0.025669,0.004174,-0.024944
6.883,-0.024869,0.004193,-0.024746
6.903,-0.023035,0.003896,-0.02456
6.923,-0.020213,0.003381,-0.024378
6.943,-0.01709,0.002685,-0.024036
6.963,-0.013437,0.001652,-0.023816
6.983,-0.010282,0.000904,-0.023748
7.003,-0.009207,0.001094,-0.023812
7.023,-0.0103,0.001313,-0.023969
7.043,-0.01227,0.001612,-0.023658
7.063,-0.01515,0.002083,-0.022968
7.083,-0.021023,0.003014,-0.022037
7.103,-0.031137,0.004477,-0.02113
7.123,-0.04429,0.006354,-0.020124
7.143,-0.060701,0.008731,-0.01905
7.163,-0.078068,0.010965,-0.017473
7.183,-0.089431,0.013036,-0.015402
7.203,-0.094813,0.014496,-0.013562
7.223,-0.096803,0.015409,-0.011879
7.243,-0.096928,0.016146,-0.010644
7.263,-0.095923,0.016684,-0.009699
7.283,-0.093162,0.016951,-0.009295
7.303,-0.088628,0.016929,-0.009162
7.323,-0.085337,0.016956,-0.009586
7.343,-0.082305,0.017086,-0.010836
7.363,-0.074842,0.016967,-0.012343
7.383,-0.064616,0.016737,-0.014394
7.403,-0.054119,0.015777,-0.015833
7.423,-0.045998,0.014785,-0.017156
7.443,-0.040493,0.01457,-0.018132
7.463,-0.035102,0.014646,-0.018689
7.483,-0.027996,0.014658,-0.018868
7.503,-0.021386,0.014576,-0.019195
7.523,-0.018269,0.014862,-0.020038
7.543,-0.01732,0.015551,-0.021518
7.563,-0.015112,0.015979,-0.022872
7.583,-0.011818,0.016809,-0.024221
7.603,-0.007703,0.01754,-0.025358
7.623,-0.003466,0.017905,-0.026376
7.643,-0.001004,0.017627,-0.026897
7.663,-0.001126,0.01685,-0.027588
7.683,-0.00068,0.01616,-0.02815
7.703,0.00252,0.015603,-0.028059
7.723,0.004418,0.015186,-0.027902
7.743,0.003586,0.014652,-0.027425
7.763,0.001074,0.013832,-0.026672
7.783,-0.001609,0.013481,-0.025618
7.803,-0.004169,0.013844,-0.024568
7.823,-0.00724,0.014242,-0.023764
7.843,-0.009831,0.014263,-0.022832
7.863,-0.011642,0.014271,-0.021854
7.883,-0.014551,0.014994,-0.021227
7.903,-0.018505,0.016133,-0.021348
7.923,-0.022021,0.017125,-0.021613
7.943,-0.024143,0.018074,-0.021861
7.963,-0.024704,0.018774,-0.02214
7.983,-0.023827,0.019094,-0.022117
8.003,-0.023676,0.019251,-0.022021
8.023,-0.024593,0.0191,-0.021985
8.043,-0.025882,0.018805,-0.021933
8.063,-0.027109,0.018774,-0.02171
8.083,-0.029039,0.018967,-0.021582
8.103,-0.031321,0.019709,-0.021525
8.123,-0.032911,0.020856,-0.021681
8.143,-0.032724,0.021218,-0.021963
8.163,-0.030673,0.020545,-0.022389
8.183,-0.030833,0.019621,-0.022116
8.203,-0.033316,0.018921,-0.021455
8.223,-0.035126,0.01862,-0.020477
8.243,-0.035745,0.018622,-0.019207
8.263,-0.036353,0.018425,-0.017994
8.283,-0.03858,0.018269,-0.016917
8.303,-0.042114,0.018287,-0.016319
8.323,-0.044873,0.0188,-0.016031
8.343,-0.046418,0.019793,-0.016249
8.363,-0.047257,0.020668,-0.016979
8.383,-0.046918,0.021282,-0.017788
8.403,-0.045966,0.021995,-0.01885
8.423,-0.045072,0.023036,-0.020021
8.443,-0.044057,0.024221,-0.021012
8.463,-0.042133,0.025206,-0.021657
8.483,-0.040396,0.025939,-0.022202
8.503,-0.038623,0.02632,-0.022591
8.523,-0.0363,0.026426,-0.022726
8.543,-0.034813,0.026331,-0.022768
8.563,-0.033914,0.025961,-0.022751
8.583,-0.032976,0.025519,-0.022726
8.603,-0.0312,0.024822,-0.022668
8.623,-0.029396,0.024168,-0.022754
8.643,-0.028756,0.023795,-0.022946
8.663,-0.028059,0.023683,-0.023286
8.683,-0.027503,0.023742,-0.02361
8.703,-0.027855,0.023913,-0.023892
8.723,-0.028488,0.024112,-0.023998
8.743,-0.028463,0.024121,-0.02413
8.763,-0.028161,0.024004,-0.024053
8.783,-0.028134,0.023792,-0.023904
8.803,-0.02844,0.02365,-0.023709
