gyro_time_list,gyro_x_list,gyro_y_list,gyro_z_list
0.310000,-1.141525,-0.579156,0.814976
0.330000,-1.368884,-0.540386,0.781801
0.350000,-1.604864,-0.502489,0.765614
0.370000,-1.820391,-0.468436,0.768668
0.390000,-2.001186,-0.436288,0.784649
0.410000,-2.138101,-0.405301,0.810983
0.430000,-2.234230,-0.373609,0.847809
0.450000,-2.301019,-0.340950,0.894355
0.470000,-2.356281,-0.305450,0.947845
0.490000,-2.414901,-0.264148,1.003714
0.510000,-2.483035,-0.215510,1.066351
0.530000,-2.563328,-0.159336,1.138988
0.550000,-2.657652,-0.098112,1.223380
0.570000,-2.771266,-0.037198,1.317402
0.590000,-2.897615,0.012043,1.387885
0.610000,-3.008388,0.028768,1.434373
0.630000,-3.044570,0.015228,1.453470
0.650000,-3.019869,-0.003946,1.433693
0.670000,-2.979603,-0.018876,1.373857
0.690000,-2.936793,-0.032519,1.274101
0.710000,-2.871245,-0.049163,1.136997
0.730000,-2.770614,-0.068105,0.974608
0.750000,-2.633965,-0.090455,0.802295
0.770000,-2.461985,-0.117305,0.630883
0.790000,-2.267248,-0.151432,0.467902
0.810000,-2.075584,-0.191294,0.322712
0.830000,-1.915721,-0.234343,0.198776
0.850000,-1.801168,-0.277307,0.096641
0.870000,-1.712680,-0.318188,0.017082
0.890000,-1.614945,-0.356925,-0.036076
0.910000,-1.491697,-0.391134,-0.060100
0.930000,-1.352521,-0.416257,-0.053541
0.950000,-1.222204,-0.431563,-0.026648
0.970000,-1.121386,-0.440490,0.012535
0.990000,-1.064966,-0.444166,0.060160
1.010000,-1.059212,-0.442378,0.105901
1.030000,-1.091759,-0.437071,0.142599
1.050000,-1.142736,-0.428717,0.170444
1.070000,-1.196245,-0.421817,0.197024
1.090000,-1.226466,-0.423743,0.231749
1.110000,-1.214448,-0.421341,0.258013
1.130000,-1.165237,-0.413502,0.267125
1.150000,-1.102273,-0.405522,0.260239
1.170000,-1.040420,-0.399189,0.244358
1.190000,-0.981770,-0.394211,0.228990
1.210000,-0.928867,-0.390874,0.213629
1.234000,-0.880482,-0.389328,0.197509
1.254000,-0.833821,-0.388360,0.177082
1.274000,-0.791387,-0.387767,0.148071
1.294000,-0.759108,-0.388158,0.109789
1.314000,-0.740990,-0.389661,0.059416
1.334000,-0.730740,-0.391888,-0.002571
1.354000,-0.720475,-0.394344,-0.076427
1.374000,-0.708141,-0.395750,-0.162041
1.394000,-0.690311,-0.393991,-0.254204
1.414000,-0.657485,-0.388548,-0.336690
1.434000,-0.606693,-0.382330,-0.398583
1.454000,-0.547697,-0.379479,-0.438574
1.474000,-0.493811,-0.380323,-0.455719
1.494000,-0.446082,-0.379435,-0.459806
1.514000,-0.398170,-0.373456,-0.450850
1.534000,-0.347452,-0.362000,-0.427545
1.554000,-0.298892,-0.346965,-0.396058
1.574000,-0.256546,-0.329321,-0.359824
1.594000,-0.216113,-0.311283,-0.320460
1.614000,-0.171929,-0.294591,-0.279753
1.634000,-0.128778,-0.279685,-0.241432
1.654000,-0.097241,-0.266468,-0.210188
1.674000,-0.080819,-0.256287,-0.183926
1.694000,-0.072701,-0.250455,-0.158407
1.714000,-0.069600,-0.247858,-0.131195
1.734000,-0.083018,-0.246802,-0.100258
1.754000,-0.107038,-0.248964,-0.061865
1.774000,-0.130854,-0.254783,-0.028384
1.794000,-0.146834,-0.263755,-0.005624
1.814000,-0.154406,-0.274098,0.002454
1.834000,-0.155453,-0.283522,-0.000992
1.854000,-0.153731,-0.291496,-0.007320
1.874000,-0.151995,-0.297371,-0.014006
1.894000,-0.152014,-0.300825,-0.020131
1.914000,-0.156136,-0.303040,-0.026367
1.934000,-0.167959,-0.304484,-0.038807
1.954000,-0.182626,-0.305057,-0.056833
1.974000,-0.192921,-0.304755,-0.079945
1.994000,-0.197768,-0.303529,-0.110026
2.014000,-0.201923,-0.300923,-0.149029
2.034000,-0.209052,-0.296355,-0.198232
2.054000,-0.219673,-0.288715,-0.258514
2.074000,-0.229180,-0.276711,-0.323797
2.094000,-0.229955,-0.260625,-0.382477
2.114000,-0.215786,-0.243289,-0.424566
2.134000,-0.191151,-0.227643,-0.450075
2.154000,-0.164356,-0.214417,-0.462061
2.174000,-0.140587,-0.201063,-0.466033
2.194000,-0.121474,-0.184627,-0.465794
2.214000,-0.105350,-0.163884,-0.460346
2.234000,-0.088760,-0.138330,-0.450623
2.254000,-0.067463,-0.108746,-0.436175
2.274000,-0.041575,-0.076969,-0.418681
2.294000,-0.016187,-0.044191,-0.400892
2.366000,0.013947,-0.010001,-0.383434
2.386000,0.037006,0.024013,-0.369626
2.406000,0.053977,0.055708,-0.349426
2.426000,0.076065,0.081976,-0.311694
2.446000,0.102462,0.102256,-0.269908
2.466000,0.121672,0.115399,-0.233542
2.486000,0.127731,0.122544,-0.207893
2.506000,0.125793,0.127239,-0.196886
2.526000,0.125275,0.133151,-0.193803
2.546000,0.129716,0.140176,-0.195730
2.566000,0.141220,0.146429,-0.203553
2.586000,0.163799,0.153826,-0.217457
2.606000,0.194667,0.164503,-0.240178
2.626000,0.229081,0.178584,-0.274820
2.646000,0.263243,0.194856,-0.320545
2.666000,0.294981,0.212633,-0.376705
2.686000,0.321864,0.231630,-0.445005
2.706000,0.342347,0.252742,-0.522953
2.726000,0.359651,0.276852,-0.603373
2.746000,0.380268,0.304823,-0.680934
2.766000,0.406068,0.336900,-0.753474
2.786000,0.430837,0.368962,-0.820446
2.806000,0.453297,0.397756,-0.881026
2.826000,0.476626,0.426242,-0.935071
2.846000,0.499429,0.457432,-0.985232
2.866000,0.521201,0.492290,-1.030156
2.886000,0.543886,0.529432,-1.069871
2.906000,0.571096,0.567775,-1.100897
2.926000,0.603108,0.608411,-1.122245
2.946000,0.634419,0.652515,-1.138688
2.966000,0.658417,0.700197,-1.152949
2.986000,0.673669,0.751361,-1.161861
3.006000,0.683255,0.804929,-1.161295
3.026000,0.689707,0.859402,-1.153716
3.046000,0.695009,0.912603,-1.144019
3.066000,0.697600,0.966548,-1.132370
3.086000,0.694266,1.025897,-1.107979
3.106000,0.692410,1.084821,-1.062037
3.126000,0.698330,1.141575,-1.018962
3.146000,0.702377,1.188720,-0.984856
3.166000,0.700132,1.225345,-0.968735
3.186000,0.701387,1.258123,-0.963592
3.206000,0.710369,1.289904,-0.962534
3.226000,0.722858,1.318398,-0.968070
3.246000,0.732459,1.340612,-0.983290
3.266000,0.735330,1.357355,-1.009090
3.286000,0.735371,1.370604,-1.042412
3.306000,0.737659,1.382129,-1.081655
3.326000,0.740341,1.393704,-1.129831
3.346000,0.737997,1.407392,-1.190435
3.366000,0.730791,1.423605,-1.259913
3.386000,0.730799,1.442596,-1.322873
3.406000,0.750173,1.459966,-1.380958
3.426000,0.783343,1.466404,-1.434686
3.446000,0.816107,1.454743,-1.481323
3.466000,0.841046,1.431510,-1.522007
3.486000,0.856772,1.404572,-1.549996
3.506000,0.864830,1.377902,-1.563353
3.526000,0.868286,1.351963,-1.561932
3.546000,0.869245,1.326770,-1.546283
3.566000,0.868630,1.302672,-1.518736
3.586000,0.865728,1.281345,-1.480209
3.606000,0.857432,1.264367,-1.435616
3.626000,0.838374,1.251507,-1.390752
3.646000,0.809206,1.241606,-1.344710
3.666000,0.777589,1.231187,-1.295399
3.686000,0.754812,1.217000,-1.236946
3.706000,0.743733,1.203885,-1.166270
3.726000,0.738349,1.196451,-1.070781
3.746000,0.726888,1.196148,-0.967127
3.766000,0.702812,1.196831,-0.873073
3.786000,0.669228,1.194536,-0.791979
3.806000,0.633445,1.188573,-0.724386
3.826000,0.604646,1.178608,-0.660932
3.846000,0.589648,1.163851,-0.600807
3.866000,0.585966,1.143821,-0.548198
3.886000,0.586084,1.119163,-0.505531
3.906000,0.583043,1.091164,-0.477465
3.926000,0.573451,1.060992,-0.468926
3.946000,0.557940,1.028428,-0.478170
3.966000,0.541018,0.993637,-0.501024
3.986000,0.526006,0.958049,-0.535166
4.006000,0.509289,0.923890,-0.584602
4.026000,0.483547,0.893506,-0.654652
4.046000,0.447501,0.869347,-0.740745
4.066000,0.411252,0.852459,-0.819994
4.086000,0.389913,0.842272,-0.870890
4.106000,0.379727,0.834435,-0.905909
4.126000,0.367207,0.823796,-0.930241
4.146000,0.351916,0.813151,-0.945607
4.166000,0.344446,0.806878,-0.949586
4.186000,0.350844,0.805247,-0.938476
4.206000,0.369938,0.806325,-0.910423
4.226000,0.398134,0.808645,-0.870197
4.246000,0.429599,0.810902,-0.824958
4.266000,0.456394,0.812782,-0.780384
4.286000,0.468349,0.814850,-0.741761
4.306000,0.463106,0.817555,-0.708662
4.326000,0.447606,0.819848,-0.677924
4.346000,0.430658,0.820270,-0.647617
4.382000,0.422037,0.814910,-0.595074
4.402000,0.415141,0.809623,-0.522075
4.422000,0.402218,0.804111,-0.456827
4.442000,0.380571,0.796098,-0.400867
4.462000,0.353843,0.786437,-0.359646
4.482000,0.333287,0.777609,-0.325582
4.502000,0.325272,0.770768,-0.292404
4.522000,0.325469,0.765472,-0.264643
4.542000,0.325933,0.761873,-0.247142
4.562000,0.321298,0.760878,-0.243382
4.582000,0.311659,0.762659,-0.254644
4.602000,0.301786,0.766067,-0.276789
4.622000,0.295810,0.770124,-0.306609
4.642000,0.294473,0.774387,-0.346190
4.662000,0.294898,0.779115,-0.396941
4.682000,0.296034,0.784454,-0.453815
4.702000,0.300315,0.790170,-0.503314
4.722000,0.310975,0.796684,-0.534363
4.742000,0.325983,0.803122,-0.547635
4.762000,0.338397,0.807657,-0.547692
4.782000,0.341696,0.811378,-0.539843
4.802000,0.337385,0.816172,-0.526455
4.822000,0.331894,0.822595,-0.504894
4.842000,0.329531,0.830069,-0.472474
4.862000,0.331191,0.838003,-0.429645
4.882000,0.335508,0.846052,-0.382975
4.902000,0.341810,0.853901,-0.339263
4.922000,0.349854,0.860529,-0.300725
4.942000,0.358152,0.865487,-0.268821
4.962000,0.365115,0.868575,-0.242913
4.982000,0.369082,0.869063,-0.221297
5.002000,0.367673,0.867438,-0.203641
5.022000,0.360609,0.863805,-0.186954
5.042000,0.348341,0.859503,-0.172843
5.062000,0.329284,0.854722,-0.169707
5.082000,0.305657,0.847570,-0.180039
5.102000,0.286382,0.839152,-0.203887
5.122000,0.279638,0.830982,-0.237608
5.142000,0.283479,0.823303,-0.278800
5.162000,0.290898,0.815689,-0.326296
5.182000,0.297206,0.808356,-0.378581
5.202000,0.302469,0.801583,-0.433394
5.222000,0.308266,0.795466,-0.491261
5.242000,0.315327,0.789720,-0.551849
5.262000,0.323364,0.784229,-0.614446
5.282000,0.331734,0.779320,-0.679019
5.302000,0.339633,0.775501,-0.745708
5.322000,0.345942,0.773955,-0.808727
5.342000,0.349291,0.775894,-0.853367
5.362000,0.349005,0.782259,-0.860212
5.382000,0.344117,0.794382,-0.829412
5.402000,0.333944,0.810582,-0.776987
5.422000,0.317836,0.827342,-0.713110
5.442000,0.300198,0.842277,-0.635501
5.462000,0.282176,0.856370,-0.558787
5.482000,0.266006,0.871177,-0.482833
5.502000,0.255895,0.885903,-0.407458
5.522000,0.253306,0.899445,-0.336663
5.542000,0.256399,0.912008,-0.276049
5.562000,0.262782,0.923903,-0.230906
5.582000,0.271512,0.934686,-0.203267
5.602000,0.283428,0.943244,-0.193295
5.622000,0.298451,0.948950,-0.200124
5.642000,0.312795,0.952129,-0.219171
5.662000,0.319482,0.956214,-0.246973
5.682000,0.318100,0.962349,-0.278501
5.702000,0.318300,0.968561,-0.315488
5.722000,0.325377,0.971835,-0.359212
5.742000,0.339185,0.970719,-0.403272
5.762000,0.355976,0.968938,-0.449308
5.782000,0.373595,0.970667,-0.496479
5.802000,0.391849,0.976762,-0.541480
5.822000,0.409714,0.986338,-0.583775
5.842000,0.427497,0.999252,-0.622911
5.862000,0.447496,1.015354,-0.656236
5.882000,0.470850,1.035147,-0.684348
5.902000,0.496183,1.058357,-0.708096
5.922000,0.518944,1.084533,-0.728750
5.942000,0.535307,1.113688,-0.745878
5.962000,0.543471,1.146030,-0.755982
5.982000,0.545092,1.183228,-0.743705
6.002000,0.542537,1.225920,-0.689292
6.022000,0.539667,1.273698,-0.621778
6.042000,0.539027,1.324203,-0.559344
6.062000,0.535520,1.374215,-0.508683
6.082000,0.536503,1.422324,-0.472163
6.102000,0.557214,1.469223,-0.434334
6.122000,0.595325,1.516041,-0.406829
6.142000,0.642047,1.560528,-0.392705
6.162000,0.690538,1.599904,-0.390448
6.182000,0.737605,1.632913,-0.399932
6.202000,0.783204,1.659278,-0.415087
6.222000,0.826140,1.679385,-0.432584
6.242000,0.863600,1.694842,-0.452606
6.262000,0.893541,1.706116,-0.474596
6.282000,0.915101,1.714100,-0.498877
6.302000,0.927031,1.720515,-0.528045
6.322000,0.929810,1.724892,-0.558432
6.342000,0.930958,1.728027,-0.584727
6.362000,0.942427,1.730243,-0.616385
6.388000,0.959390,1.724477,-0.664690
6.408000,0.969597,1.711978,-0.722746
6.428000,0.976012,1.696680,-0.781937
6.448000,0.986885,1.683365,-0.834339
6.468000,1.001319,1.672109,-0.882081
6.488000,1.016395,1.659370,-0.924121
6.508000,1.031807,1.644647,-0.960480
6.528000,1.046651,1.630268,-0.991730
6.548000,1.058825,1.619273,-1.015914
6.568000,1.063987,1.612127,-1.030532
6.588000,1.057343,1.609064,-1.034917
6.608000,1.036862,1.611584,-1.031669
6.628000,1.001974,1.620475,-1.027421
6.648000,0.955807,1.633501,-1.021476
6.668000,0.907539,1.647311,-1.001891
6.688000,0.870144,1.659057,-0.956824
6.708000,0.856497,1.669193,-0.887967
6.728000,0.861440,1.676329,-0.805935
6.748000,0.866993,1.678847,-0.719589
6.768000,0.865067,1.679439,-0.638262
6.788000,0.860360,1.680183,-0.563669
6.808000,0.855733,1.680088,-0.500336
6.828000,0.850344,1.677416,-0.452236
6.848000,0.845033,1.671131,-0.419514
6.868000,0.841286,1.661462,-0.402990
6.888000,0.839434,1.648092,-0.403791
6.908000,0.838413,1.630251,-0.422213
6.928000,0.837908,1.606884,-0.454107
6.948000,0.838069,1.575336,-0.494263
6.968000,0.838559,1.533440,-0.539197
6.988000,0.840350,1.481440,-0.583443
7.008000,0.848737,1.422659,-0.615936
7.028000,0.863564,1.357673,-0.637498
7.048000,0.874274,1.285759,-0.654258
7.068000,0.872298,1.210241,-0.667488
7.088000,0.858730,1.137268,-0.674326
7.108000,0.838738,1.070127,-0.670717
7.128000,0.813073,1.011797,-0.655698
7.148000,0.781919,0.963655,-0.629201
7.168000,0.745898,0.924499,-0.592970
7.188000,0.705539,0.892145,-0.550009
7.208000,0.664997,0.864154,-0.498982
7.228000,0.630350,0.838530,-0.442038
7.248000,0.604391,0.814488,-0.385376
7.268000,0.583068,0.792756,-0.334178
7.288000,0.558601,0.774966,-0.294095
7.308000,0.525901,0.761657,-0.268094
7.328000,0.485110,0.752468,-0.256525
7.348000,0.441969,0.748740,-0.255702
7.368000,0.407700,0.749748,-0.255307
7.388000,0.391749,0.753786,-0.252205
7.408000,0.390600,0.757324,-0.252001
7.428000,0.395722,0.756513,-0.258553
7.448000,0.403383,0.749906,-0.271559
7.468000,0.413257,0.738274,-0.289048
7.488000,0.424862,0.725026,-0.310486
7.508000,0.437544,0.713112,-0.333390
7.528000,0.451904,0.704331,-0.356598
7.548000,0.468632,0.697471,-0.379061
7.568000,0.487199,0.690639,-0.399757
7.588000,0.505990,0.681746,-0.417606
7.608000,0.520174,0.670729,-0.433285
7.628000,0.527071,0.658265,-0.445948
7.648000,0.527786,0.643627,-0.453579
7.668000,0.523233,0.627885,-0.452229
7.688000,0.512406,0.613504,-0.438827
7.708000,0.494313,0.600798,-0.410712
7.728000,0.468992,0.589884,-0.364869
7.748000,0.434027,0.582591,-0.314858
7.768000,0.390162,0.574336,-0.269514
7.788000,0.344529,0.560769,-0.231898
7.808000,0.311425,0.544119,-0.193159
7.828000,0.296664,0.526499,-0.148503
7.848000,0.291859,0.506623,-0.107149
7.868000,0.285439,0.484356,-0.073280
7.888000,0.273017,0.460399,-0.048736
7.908000,0.258458,0.436530,-0.037237
7.928000,0.246963,0.413480,-0.039414
7.948000,0.238884,0.391304,-0.052850
7.968000,0.230944,0.370397,-0.077613
7.988000,0.222283,0.352807,-0.114134
8.008000,0.213802,0.341118,-0.161250
8.028000,0.205369,0.339372,-0.215964
8.048000,0.201418,0.347281,-0.269092
8.068000,0.208961,0.360786,-0.319923
8.088000,0.231852,0.378178,-0.365026
8.108000,0.265717,0.394566,-0.401571
8.128000,0.298355,0.408041,-0.438085
8.148000,0.324262,0.421479,-0.472586
8.168000,0.348167,0.437227,-0.500413
8.188000,0.372173,0.455058,-0.519727
8.208000,0.394788,0.473847,-0.530360
8.228000,0.416876,0.493435,-0.532741
8.248000,0.437351,0.512848,-0.530317
8.268000,0.448631,0.529832,-0.527853
8.288000,0.448700,0.542668,-0.523039
8.308000,0.441172,0.550844,-0.515617
8.328000,0.433636,0.553715,-0.509675
8.348000,0.433048,0.551164,-0.505757
8.368000,0.434400,0.543487,-0.501148
