gyro_time_list,gyro_x_list,gyro_y_list,gyro_z_list
0.026000,0.072000,0.033000,-0.008000
0.046000,0.024000,0.040000,-0.018000
0.066000,-0.030000,0.032000,-0.044000
0.086000,-0.047000,0.030000,-0.071000
0.106000,-0.041000,0.034000,-0.091000
0.126000,-0.036000,0.045000,-0.118000
0.146000,-0.032000,0.063000,-0.152000
0.166000,-0.019000,0.079000,-0.186000
0.186000,-0.002000,0.093000,-0.214000
0.206000,0.014000,0.107000,-0.243000
0.226000,0.029000,0.120000,-0.269000
0.246000,0.036000,0.140000,-0.296000
0.266000,0.028000,0.166000,-0.309000
0.286000,0.010000,0.199000,-0.328000
0.306000,-0.027000,0.238000,-0.341000
0.326000,-0.079000,0.291000,-0.348000
0.346000,-0.137000,0.355000,-0.342000
0.366000,-0.195000,0.429000,-0.320000
0.386000,-0.250000,0.514000,-0.283000
0.406000,-0.302000,0.608000,-0.230000
0.426000,-0.349000,0.706000,-0.161000
0.446000,-0.393000,0.809000,-0.078000
0.466000,-0.441000,0.918000,0.019000
0.486000,-0.496000,1.032000,0.128000
0.506000,-0.562000,1.153000,0.249000
0.526000,-0.639000,1.281000,0.382000
0.546000,-0.726000,1.412000,0.526000
0.566000,-0.822000,1.541000,0.680000
0.586000,-0.920000,1.665000,0.845000
0.606000,-1.008000,1.774000,1.021000
0.626000,-1.063000,1.855000,1.201000
0.646000,-1.059000,1.898000,1.376000
0.666000,-0.977000,1.903000,1.527000
0.686000,-0.821000,1.877000,1.638000
0.706000,-0.618000,1.837000,1.693000
0.726000,-0.392000,1.794000,1.691000
0.746000,-0.172000,1.750000,1.650000
0.766000,0.010000,1.701000,1.584000
0.786000,0.141000,1.646000,1.505000
0.806000,0.223000,1.586000,1.421000
0.826000,0.262000,1.519000,1.334000
0.846000,0.268000,1.446000,1.242000
0.866000,0.263000,1.369000,1.148000
0.886000,0.265000,1.290000,1.045000
0.906000,0.282000,1.208000,0.931000
0.926000,0.321000,1.124000,0.805000
0.946000,0.384000,1.037000,0.667000
0.966000,0.459000,0.948000,0.510000
0.986000,0.538000,0.856000,0.332000
1.006000,0.627000,0.763000,0.138000
1.026000,0.720000,0.670000,-0.069000
1.046000,0.810000,0.575000,-0.284000
1.066000,0.892000,0.482000,-0.500000
1.086000,0.967000,0.395000,-0.710000
1.106000,1.037000,0.313000,-0.908000
1.126000,1.103000,0.235000,-1.086000
1.146000,1.162000,0.163000,-1.236000
1.166000,1.210000,0.099000,-1.360000
1.186000,1.248000,0.044000,-1.454000
1.206000,1.281000,-0.003000,-1.517000
1.226000,1.313000,-0.044000,-1.548000
1.246000,1.338000,-0.078000,-1.555000
1.266000,1.352000,-0.106000,-1.543000
1.286000,1.350000,-0.126000,-1.517000
1.306000,1.334000,-0.138000,-1.482000
1.326000,1.306000,-0.143000,-1.442000
1.346000,1.269000,-0.140000,-1.401000
1.366000,1.225000,-0.130000,-1.359000
1.386000,1.178000,-0.114000,-1.315000
1.406000,1.129000,-0.092000,-1.269000
1.426000,1.082000,-0.068000,-1.218000
1.446000,1.036000,-0.040000,-1.160000
1.466000,0.990000,-0.009000,-1.095000
1.486000,0.940000,0.026000,-1.020000
1.506000,0.887000,0.064000,-0.934000
1.526000,0.832000,0.103000,-0.834000
1.546000,0.775000,0.146000,-0.719000
1.566000,0.712000,0.194000,-0.586000
1.586000,0.641000,0.248000,-0.437000
1.606000,0.572000,0.305000,-0.269000
1.626000,0.514000,0.363000,-0.080000
1.646000,0.467000,0.421000,0.126000
1.666000,0.430000,0.478000,0.346000
1.686000,0.401000,0.534000,0.575000
1.706000,0.381000,0.586000,0.805000
1.726000,0.366000,0.632000,1.024000
1.746000,0.353000,0.671000,1.221000
1.766000,0.342000,0.699000,1.385000
1.786000,0.334000,0.719000,1.511000
1.806000,0.332000,0.730000,1.594000
1.826000,0.335000,0.736000,1.634000
1.846000,0.344000,0.736000,1.636000
1.866000,0.359000,0.731000,1.606000
1.886000,0.380000,0.722000,1.552000
1.906000,0.404000,0.711000,1.478000
1.926000,0.430000,0.697000,1.391000
1.946000,0.460000,0.682000,1.295000
1.966000,0.494000,0.662000,1.195000
1.986000,0.530000,0.638000,1.091000
2.006000,0.567000,0.609000,0.985000
2.026000,0.601000,0.578000,0.876000
2.046000,0.629000,0.544000,0.765000
2.066000,0.652000,0.507000,0.652000
2.086000,0.671000,0.466000,0.536000
2.106000,0.691000,0.422000,0.416000
2.126000,0.716000,0.374000,0.291000
2.146000,0.747000,0.323000,0.163000
2.166000,0.783000,0.269000,0.032000
2.186000,0.823000,0.212000,-0.098000
2.206000,0.864000,0.150000,-0.226000
2.226000,0.903000,0.082000,-0.353000
2.246000,0.934000,0.012000,-0.480000
2.266000,0.957000,-0.058000,-0.608000
2.286000,0.971000,-0.126000,-0.738000
2.306000,0.975000,-0.190000,-0.866000
2.326000,0.973000,-0.247000,-0.990000
2.346000,0.966000,-0.298000,-1.105000
2.366000,0.956000,-0.342000,-1.206000
2.386000,0.945000,-0.377000,-1.290000
2.406000,0.936000,-0.403000,-1.356000
2.426000,0.929000,-0.421000,-1.401000
2.446000,0.924000,-0.431000,-1.426000
2.466000,0.920000,-0.435000,-1.433000
2.486000,0.914000,-0.431000,-1.424000
2.506000,0.904000,-0.421000,-1.402000
2.526000,0.890000,-0.403000,-1.367000
2.546000,0.872000,-0.380000,-1.320000
2.566000,0.850000,-0.351000,-1.261000
2.586000,0.824000,-0.315000,-1.192000
2.606000,0.795000,-0.273000,-1.112000
2.626000,0.763000,-0.225000,-1.019000
2.646000,0.725000,-0.173000,-0.913000
2.666000,0.682000,-0.119000,-0.794000
2.686000,0.635000,-0.061000,-0.663000
2.706000,0.587000,0.002000,-0.516000
2.726000,0.539000,0.066000,-0.354000
2.746000,0.491000,0.129000,-0.179000
2.766000,0.440000,0.191000,0.003000
2.786000,0.391000,0.252000,0.187000
2.806000,0.344000,0.310000,0.371000
2.826000,0.305000,0.367000,0.547000
2.846000,0.276000,0.419000,0.712000
2.866000,0.253000,0.463000,0.862000
2.886000,0.233000,0.497000,0.992000
2.906000,0.212000,0.522000,1.095000
2.926000,0.191000,0.536000,1.167000
2.946000,0.172000,0.543000,1.210000
2.966000,0.158000,0.546000,1.227000
2.986000,0.149000,0.544000,1.225000
3.006000,0.143000,0.538000,1.209000
3.026000,0.140000,0.528000,1.183000
3.046000,0.140000,0.516000,1.149000
3.066000,0.143000,0.503000,1.109000
3.086000,0.149000,0.488000,1.065000
3.106000,0.156000,0.472000,1.016000
3.126000,0.167000,0.454000,0.961000
3.146000,0.180000,0.436000,0.902000
3.166000,0.196000,0.417000,0.835000
3.186000,0.213000,0.399000,0.762000
3.206000,0.232000,0.380000,0.683000
3.226000,0.255000,0.361000,0.597000
3.246000,0.281000,0.345000,0.507000
3.266000,0.313000,0.331000,0.418000
3.286000,0.353000,0.313000,0.330000
3.306000,0.401000,0.289000,0.247000
3.326000,0.454000,0.259000,0.163000
3.346000,0.506000,0.224000,0.074000
3.366000,0.555000,0.182000,-0.024000
3.386000,0.597000,0.136000,-0.132000
3.406000,0.631000,0.088000,-0.249000
3.426000,0.657000,0.039000,-0.372000
3.446000,0.678000,-0.012000,-0.495000
3.466000,0.696000,-0.063000,-0.612000
3.486000,0.709000,-0.116000,-0.717000
3.506000,0.718000,-0.169000,-0.811000
3.526000,0.722000,-0.222000,-0.892000
3.546000,0.722000,-0.272000,-0.962000
3.566000,0.717000,-0.318000,-1.021000
3.586000,0.707000,-0.360000,-1.070000
3.606000,0.694000,-0.394000,-1.109000
3.626000,0.678000,-0.422000,-1.137000
3.646000,0.660000,-0.441000,-1.155000
3.666000,0.642000,-0.452000,-1.162000
3.686000,0.622000,-0.455000,-1.159000
3.706000,0.602000,-0.450000,-1.145000
3.726000,0.579000,-0.437000,-1.120000
3.746000,0.553000,-0.417000,-1.083000
3.766000,0.525000,-0.389000,-1.033000
3.786000,0.493000,-0.354000,-0.968000
3.806000,0.458000,-0.314000,-0.889000
3.826000,0.422000,-0.267000,-0.793000
3.846000,0.382000,-0.216000,-0.680000
3.866000,0.338000,-0.160000,-0.550000
3.886000,0.289000,-0.101000,-0.402000
3.906000,0.235000,-0.039000,-0.235000
3.926000,0.176000,0.026000,-0.048000
3.946000,0.112000,0.091000,0.158000
3.966000,0.045000,0.153000,0.379000
3.986000,-0.020000,0.210000,0.608000
4.006000,-0.078000,0.256000,0.828000
4.026000,-0.134000,0.288000,1.016000
4.046000,-0.192000,0.311000,1.162000
4.066000,-0.248000,0.332000,1.261000
4.086000,-0.286000,0.349000,1.321000
4.106000,-0.308000,0.357000,1.348000
4.126000,-0.326000,0.355000,1.349000
4.146000,-0.351000,0.349000,1.331000
4.166000,-0.382000,0.338000,1.300000
4.186000,-0.410000,0.326000,1.259000
4.206000,-0.429000,0.311000,1.212000
4.226000,-0.444000,0.296000,1.161000
4.246000,-0.454000,0.281000,1.106000
4.266000,-0.457000,0.268000,1.050000
4.286000,-0.452000,0.256000,0.992000
4.306000,-0.439000,0.245000,0.935000
4.326000,-0.418000,0.236000,0.879000
4.346000,-0.389000,0.229000,0.823000
4.366000,-0.354000,0.223000,0.767000
4.386000,-0.313000,0.218000,0.710000
4.406000,-0.267000,0.212000,0.651000
4.426000,-0.216000,0.208000,0.587000
4.446000,-0.159000,0.202000,0.518000
4.466000,-0.099000,0.193000,0.443000
4.486000,-0.045000,0.183000,0.361000
4.506000,0.000000,0.172000,0.271000
4.526000,0.037000,0.161000,0.174000
4.546000,0.075000,0.152000,0.072000
4.566000,0.118000,0.144000,-0.028000
4.586000,0.170000,0.132000,-0.123000
4.606000,0.227000,0.113000,-0.211000
4.626000,0.285000,0.090000,-0.301000
4.646000,0.339000,0.064000,-0.397000
4.666000,0.388000,0.036000,-0.502000
4.686000,0.429000,0.006000,-0.612000
4.706000,0.462000,-0.025000,-0.723000
4.726000,0.491000,-0.057000,-0.826000
4.746000,0.519000,-0.088000,-0.915000
4.766000,0.549000,-0.119000,-0.986000
4.786000,0.577000,-0.150000,-1.040000
4.806000,0.598000,-0.179000,-1.078000
4.826000,0.611000,-0.208000,-1.105000
4.846000,0.616000,-0.233000,-1.124000
4.866000,0.612000,-0.255000,-1.135000
4.886000,0.602000,-0.273000,-1.139000
4.906000,0.588000,-0.286000,-1.136000
4.926000,0.570000,-0.294000,-1.126000
4.946000,0.551000,-0.297000,-1.109000
4.966000,0.531000,-0.294000,-1.084000
4.986000,0.509000,-0.286000,-1.049000
5.006000,0.484000,-0.273000,-1.005000
5.026000,0.455000,-0.255000,-0.951000
5.046000,0.420000,-0.233000,-0.884000
5.066000,0.383000,-0.205000,-0.805000
5.086000,0.344000,-0.174000,-0.712000
5.106000,0.303000,-0.141000,-0.604000
5.126000,0.260000,-0.106000,-0.479000
5.146000,0.211000,-0.067000,-0.335000
5.166000,0.153000,-0.025000,-0.172000
5.186000,0.083000,0.020000,0.012000
5.206000,0.001000,0.068000,0.216000
5.226000,-0.088000,0.116000,0.436000
5.246000,-0.178000,0.160000,0.664000
5.266000,-0.268000,0.196000,0.886000
5.286000,-0.358000,0.224000,1.084000
5.306000,-0.441000,0.246000,1.245000
5.326000,-0.508000,0.261000,1.363000
5.346000,-0.558000,0.271000,1.440000
5.366000,-0.603000,0.276000,1.478000
5.386000,-0.660000,0.273000,1.481000
5.406000,-0.733000,0.265000,1.459000
5.426000,-0.817000,0.253000,1.417000
5.446000,-0.901000,0.239000,1.360000
5.466000,-0.977000,0.224000,1.294000
5.486000,-1.039000,0.211000,1.222000
5.506000,-1.080000,0.199000,1.147000
5.526000,-1.096000,0.190000,1.072000
5.546000,-1.087000,0.185000,0.998000
5.566000,-1.054000,0.182000,0.927000
5.586000,-1.005000,0.182000,0.857000
5.606000,-0.946000,0.184000,0.788000
5.626000,-0.878000,0.187000,0.716000
5.646000,-0.803000,0.191000,0.642000
5.666000,-0.719000,0.196000,0.562000
5.686000,-0.626000,0.201000,0.476000
5.706000,-0.524000,0.206000,0.384000
5.726000,-0.410000,0.210000,0.286000
5.746000,-0.286000,0.213000,0.180000
5.766000,-0.146000,0.216000,0.067000
5.786000,0.017000,0.214000,-0.050000
5.806000,0.193000,0.203000,-0.174000
5.826000,0.382000,0.183000,-0.312000
5.846000,0.595000,0.157000,-0.468000
5.866000,0.827000,0.124000,-0.643000
5.886000,1.066000,0.085000,-0.834000
5.906000,1.299000,0.038000,-1.033000
5.926000,1.525000,-0.016000,-1.221000
5.946000,1.739000,-0.075000,-1.387000
5.966000,1.941000,-0.139000,-1.527000
5.986000,2.129000,-0.207000,-1.635000
6.006000,2.302000,-0.276000,-1.712000
