gyro_time_list,gyro_x_list,gyro_y_list,gyro_z_list
0.473,-0.736902,-0.01692,0.252207
0.493,-0.710655,-0.001998,0.273391
0.513,-0.667265,0.021553,0.294414
0.533,-0.617507,0.044056,0.314848
0.553,-0.565897,0.067014,0.332386
0.573,-0.512596,0.090315,0.344087
0.593,-0.466366,0.114759,0.349552
0.613,-0.433154,0.142686,0.352693
0.633,-0.408468,0.172387,0.354626
0.653,-0.387182,0.201146,0.357338
0.673,-0.371012,0.228712,0.361177
0.693,-0.361523,0.258311,0.367842
0.713,-0.35367,0.290286,0.378739
0.733,-0.339137,0.319905,0.393497
0.753,-0.315974,0.344597,0.410431
0.773,-0.288904,0.364855,0.425755
0.793,-0.265699,0.383058,0.438313
0.813,-0.25026,0.40012,0.448502
0.833,-0.240534,0.413581,0.456824
0.853,-0.235891,0.423246,0.462406
0.873,-0.234835,0.431508,0.464712
0.893,-0.237657,0.439434,0.4648
0.913,-0.244478,0.445761,0.462992
0.933,-0.252375,0.44917,0.459252
0.953,-0.258798,0.450839,0.453117
0.973,-0.261663,0.451727,0.44379
0.993,-0.261039,0.451873,0.431971
1.013,-0.258407,0.451342,0.418477
1.033,-0.254716,0.449483,0.404833
1.053,-0.252052,0.445794,0.39252
1.073,-0.252545,0.441057,0.382871
1.093,-0.257286,0.435765,0.375765
1.113,-0.266404,0.428908,0.370241
1.133,-0.279699,0.41954,0.364822
1.153,-0.295671,0.4093,0.359144
1.173,-0.311639,0.399471,0.352818
1.193,-0.325954,0.389431,0.345404
1.213,-0.337977,0.378329,0.337929
1.233,-0.347358,0.366697,0.331327
1.253,-0.352756,0.356044,0.325853
1.273,-0.351541,0.34691,0.32155
1.293,-0.343206,0.338015,0.318306
1.313,-0.328819,0.328334,0.316299
1.333,-0.309479,0.318271,0.315292
1.353,-0.287372,0.308055,0.314267
1.373,-0.265247,0.297388,0.312299
1.393,-0.2453,0.285788,0.30874
1.413,-0.228794,0.27355,0.303451
1.433,-0.21462,0.261425,0.296822
1.453,-0.201603,0.248931,0.2886
1.473,-0.188778,0.234699,0.279101
1.493,-0.175852,0.218528,0.268705
1.513,-0.161677,0.201377,0.257411
1.533,-0.144662,0.183662,0.244746
1.553,-0.122373,0.164886,0.230709
1.573,-0.093421,0.143205,0.216287
1.593,-0.058187,0.118536,0.202285
1.613,-0.01801,0.090297,0.189114
1.633,0.025414,0.056323,0.175986
1.653,0.068897,0.015689,0.162643
1.673,0.110675,-0.030445,0.149961
1.693,0.147053,-0.081592,0.138457
1.713,0.174237,-0.139834,0.128725
1.733,0.187562,-0.205306,0.120387
1.753,0.185271,-0.275105,0.113428
1.773,0.168973,-0.346676,0.106097
1.793,0.147524,-0.419704,0.098229
1.813,0.132796,-0.495478,0.090256
1.833,0.128539,-0.573716,0.081062
1.853,0.130467,-0.652315,0.070581
1.873,0.133134,-0.72926,0.057566
1.893,0.133374,-0.803429,0.042765
1.913,0.135255,-0.873865,0.027583
1.933,0.149849,-0.934219,0.012741
1.953,0.175267,-0.972959,0.002095
1.973,0.202658,-0.986005,-0.004388
1.993,0.235581,-0.979984,-0.009531
2.013,0.276707,-0.964271,-0.017838
2.033,0.309379,-0.940685,-0.028398
2.053,0.299774,-0.900284,-0.02984
2.073,0.224406,-0.825686,-0.017812
2.093,0.119964,-0.712101,0.011106
2.113,0.094796,-0.543309,0.062772
2.133,0.219169,-0.326422,0.114848
2.153,0.359371,-0.09103,0.141166
2.173,0.490815,-0.330859,0.18952
2.193,0.292542,-0.578362,0.0813
2.213,0.076218,-0.713085,-0.039781
2.233,-0.068154,-0.852974,-0.173662
2.253,-0.300728,-1.049191,-0.294702
2.273,-0.541982,-1.039035,-0.448777
2.293,-0.730338,-0.722806,-0.612865
2.313,-0.784567,-0.497348,-0.744292
2.333,-0.627731,-0.351501,-0.825938
2.353,-0.35828,-0.290433,-0.889466
2.373,-0.167301,-0.288998,-0.927417
2.393,-0.159142,-0.312907,-0.893247
2.413,-0.271688,-0.336691,-0.828325
2.433,-0.329022,-0.352139,-0.79077
2.453,-0.295924,-0.343402,-0.76319
3.23,-0.276064,-0.32625,-0.734446
3.25,-0.270678,-0.311565,-0.703625
3.27,-0.26856,-0.298455,-0.674484
3.29,-0.265169,-0.288061,-0.647095
3.31,-0.26344,-0.281683,-0.623038
3.33,-0.253938,-0.276493,-0.601525
3.35,-0.231756,-0.272257,-0.578779
3.37,-0.201934,-0.270659,-0.557715
3.39,-0.169686,-0.270945,-0.538606
3.41,-0.140129,-0.273175,-0.519967
3.43,-0.113529,-0.278044,-0.500601
3.45,-0.07816,-0.285232,-0.479108
3.47,-0.039894,-0.292084,-0.457427
3.49,-0.014302,-0.298841,-0.433684
3.51,0.001688,-0.303626,-0.409902
3.53,0.007368,-0.305242,-0.386649
3.55,0.006895,-0.301877,-0.365122
3.57,0.006948,-0.295411,-0.350496
3.59,0.013167,-0.289069,-0.343496
3.61,0.02848,-0.281625,-0.34114
3.63,0.052669,-0.271771,-0.339244
3.65,0.066234,-0.253045,-0.342492
3.67,0.06344,-0.235032,-0.32955
3.69,0.005254,-0.231637,-0.291407
3.71,-0.046796,-0.236119,-0.271248
3.73,-0.032476,-0.234993,-0.269305
3.75,0.001171,-0.229603,-0.271333
3.77,0.027049,-0.222744,-0.27375
3.79,0.03041,-0.216453,-0.27156
3.81,0.015157,-0.210411,-0.262628
3.83,-0.011675,-0.20551,-0.247393
3.85,-0.047247,-0.202211,-0.229475
3.87,-0.082509,-0.201091,-0.214691
3.89,-0.101745,-0.201797,-0.207461
3.91,-0.095178,-0.203281,-0.203721
3.93,-0.081335,-0.204981,-0.199706
3.95,-0.077836,-0.206932,-0.192803
3.97,-0.081706,-0.209553,-0.182318
3.99,-0.087342,-0.213435,-0.168303
4.01,-0.095556,-0.219509,-0.150254
4.03,-0.102764,-0.228494,-0.127651
4.05,-0.106889,-0.240192,-0.101586
4.07,-0.115616,-0.254045,-0.070533
4.09,-0.13248,-0.269608,-0.033607
4.11,-0.154414,-0.285259,0.00765
4.13,-0.183572,-0.300896,0.048732
4.15,-0.210147,-0.317091,0.084398
4.17,-0.221186,-0.331762,0.112269
4.19,-0.219631,-0.343688,0.133497
4.21,-0.21561,-0.35157,0.150864
4.23,-0.209775,-0.354939,0.164781
4.25,-0.207111,-0.354386,0.175377
4.27,-0.215331,-0.350248,0.181806
4.29,-0.230517,-0.344482,0.18273
4.31,-0.228798,-0.337487,0.180733
4.33,-0.208287,-0.329817,0.177459
4.35,-0.180195,-0.320535,0.174651
4.37,-0.151525,-0.310936,0.171722
4.39,-0.123677,-0.300684,0.168138
4.41,-0.100105,-0.290361,0.163503
4.43,-0.088865,-0.282441,0.158956
4.45,-0.092392,-0.278042,0.156413
4.47,-0.100466,-0.27471,0.155618
4.49,-0.105495,-0.270078,0.154718
4.51,-0.106484,-0.26443,0.152103
4.53,-0.102781,-0.258857,0.14668
4.55,-0.094496,-0.254003,0.13904
4.57,-0.086248,-0.250118,0.129177
4.59,-0.078905,-0.246508,0.117614
4.61,-0.072429,-0.242548,0.105946
4.63,-0.064594,-0.237724,0.096685
4.65,-0.056809,-0.231811,0.090217
4.67,-0.05179,-0.225505,0.08681
4.69,-0.051997,-0.219947,0.08587
4.71,-0.058632,-0.216111,0.086083
4.73,-0.068521,-0.21353,0.086087
4.75,-0.078604,-0.21119,0.085125
4.77,-0.086321,-0.209086,0.08363
4.79,-0.087151,-0.206092,0.081502
4.81,-0.082226,-0.202157,0.078878
4.83,-0.075349,-0.197837,0.076028
4.85,-0.069718,-0.19388,0.073204
4.87,-0.066541,-0.190609,0.070698
4.89,-0.064919,-0.187681,0.068789
4.91,-0.064348,-0.184815,0.067732
4.93,-0.065153,-0.181777,0.067255
4.95,-0.067452,-0.178593,0.066934
4.97,-0.069901,-0.1755,0.066531
4.99,-0.070569,-0.172451,0.06591
5.01,-0.069507,-0.169451,0.065074
5.03,-0.068192,-0.166513,0.063987
5.05,-0.067391,-0.163533,0.062784
5.07,-0.067655,-0.160518,0.061671
5.09,-0.068562,-0.157634,0.060737
5.11,-0.069263,-0.154982,0.059959
5.13,-0.069658,-0.152375,0.059099
5.15,-0.070125,-0.149836,0.058134
5.17,-0.070323,-0.147228,0.057266
5.19,-0.070441,-0.144658,0.056528
5.21,-0.070493,-0.142211,0.056013
5.992,-0.071242,-0.139946,0.055489
6.012,-0.071426,-0.137999,0.054677
6.032,-0.071844,-0.136139,0.054155
6.052,-0.072593,-0.134351,0.053939
6.072,-0.073755,-0.13247,0.053911
6.092,-0.074068,-0.130406,0.053938
6.112,-0.074851,-0.128615,0.053489
6.132,-0.075411,-0.127191,0.052563
6.152,-0.074463,-0.125651,0.051732
6.172,-0.074161,-0.124018,0.051168
6.192,-0.073989,-0.12225,0.050771
6.212,-0.072897,-0.120426,0.050093
6.232,-0.071524,-0.118516,0.04915
6.252,-0.070546,-0.116587,0.048371
6.272,-0.070298,-0.114793,0.047726
6.292,-0.070573,-0.113168,0.04713
6.312,-0.070898,-0.111577,0.046426
6.332,-0.070965,-0.110008,0.045691
6.352,-0.070457,-0.108509,0.044902
6.372,-0.069744,-0.106988,0.044148
6.392,-0.069217,-0.105446,0.043462
6.412,-0.069107,-0.103977,0.042792
6.432,-0.069103,-0.102659,0.042149
6.452,-0.068978,-0.101378,0.041655
6.472,-0.068665,-0.100037,0.041234
6.492,-0.068136,-0.098709,0.040659
6.512,-0.067691,-0.09747,0.040017
6.532,-0.067319,-0.096235,0.039395
6.552,-0.06675,-0.094988,0.038904
6.572,-0.065976,-0.093746,0.038429
6.592,-0.065136,-0.092548,0.037864
6.612,-0.064733,-0.091338,0.037371
6.632,-0.064875,-0.09013,0.037142
6.652,-0.064923,-0.088984,0.036914
6.672,-0.064877,-0.087949,0.036397
6.692,-0.064835,-0.086949,0.035732
6.712,-0.065031,-0.085934,0.035177
6.732,-0.065272,-0.084897,0.034714
6.752,-0.065192,-0.083887,0.034222
6.772,-0.06474,-0.082814,0.033493
6.792,-0.06421,-0.081714,0.032683
6.812,-0.06403,-0.080637,0.032003
6.832,-0.064256,-0.0796,0.031504
6.852,-0.064654,-0.078549,0.031017
6.872,-0.065024,-0.077521,0.030426
6.892,-0.065134,-0.076544,0.02983
6.912,-0.065131,-0.075516,0.029268
6.932,-0.06646,-0.074926,0.030353
6.952,-0.06706,-0.073994,0.029654
6.972,-0.068082,-0.072811,0.031811
6.992,-0.069771,-0.072217,0.032005
7.012,-0.070343,-0.071278,0.031791
7.032,-0.070015,-0.070378,0.031182
7.052,-0.06841,-0.069172,0.03067
7.072,-0.066944,-0.067802,0.030504
7.092,-0.066067,-0.066657,0.030419
7.112,-0.065241,-0.06564,0.030222
7.132,-0.064278,-0.064846,0.029604
7.152,-0.063257,-0.064364,0.028841
7.172,-0.062509,-0.063743,0.028089
7.192,-0.062097,-0.063387,0.02723
7.212,-0.061753,-0.062765,0.02619
7.232,-0.061033,-0.061959,0.025705
7.252,-0.060376,-0.061165,0.025284
7.272,-0.059676,-0.060143,0.025011
7.292,-0.059037,-0.059166,0.024694
7.312,-0.058585,-0.0582,0.024214
7.332,-0.058675,-0.057115,0.023587
7.352,-0.058884,-0.056418,0.023171
7.372,-0.059278,-0.055725,0.022919
7.392,-0.059407,-0.054863,0.022625
7.412,-0.059046,-0.0539,0.022119
7.432,-0.058198,-0.05277,0.021502
7.452,-0.057333,-0.051818,0.020866
7.472,-0.056687,-0.051171,0.020363
7.492,-0.056022,-0.050565,0.020089
7.512,-0.055459,-0.049931,0.019484
7.532,-0.055481,-0.049334,0.018739
7.552,-0.056171,-0.04897,0.018284
7.572,-0.057364,-0.048698,0.018222
7.592,-0.058264,-0.048443,0.0184
7.612,-0.058788,-0.048171,0.018075
7.632,-0.05872,-0.04746,0.01767
7.652,-0.058718,-0.046747,0.017343
7.672,-0.058794,-0.046149,0.017303
7.692,-0.059075,-0.046014,0.017391
7.712,-0.058868,-0.04527,0.017759
7.732,-0.059481,-0.045275,0.017352
7.752,-0.059529,-0.045,0.017512
7.772,-0.059775,-0.044211,0.017562
7.792,-0.058747,-0.042094,0.017597
7.812,-0.056827,-0.039632,0.017014
7.832,-0.053533,-0.037222,0.016085
7.852,-0.048987,-0.034812,0.015558
7.872,-0.045709,-0.033051,0.014928
7.892,-0.042872,-0.030656,0.015022
7.912,-0.04034,-0.028114,0.014198
7.932,-0.038829,-0.026481,0.012938
7.952,-0.038149,-0.025692,0.011383
7.972,-0.037784,-0.024951,0.009817
