accel_time_list,accel_x_list,accel_y_list,accel_z_list
0.325000,-9.885659,-1.661576,3.742137
0.345000,-10.984598,-2.416947,3.657143
0.365000,-11.808515,-2.834396,3.491355
0.385000,-12.317686,-3.048344,3.285541
0.405000,-12.750481,-3.183711,3.164910
0.425000,-13.261549,-3.242622,3.183559
0.445000,-13.754629,-3.325433,3.329515
0.465000,-14.087661,-3.550693,3.580082
0.485000,-14.192581,-3.875421,3.846110
0.505000,-14.058617,-4.208363,4.074904
0.525000,-13.799651,-4.524264,4.273293
0.545000,-13.558793,-4.803532,4.481429
0.565000,-13.341901,-5.022278,4.701596
0.585000,-13.071534,-5.162947,4.916682
0.605000,-12.773467,-5.228969,5.109739
0.625000,-12.510334,-5.246605,5.273343
0.645000,-12.292378,-5.230066,5.417427
0.665000,-12.067070,-5.170139,5.534729
0.685000,-11.830465,-5.077576,5.622816
0.705000,-11.616732,-4.969724,5.690154
0.725000,-11.431191,-4.858211,5.745072
0.745000,-11.227210,-4.741298,5.790236
0.765000,-11.002740,-4.621186,5.831011
0.785000,-10.799921,-4.497106,5.870039
0.805000,-10.626305,-4.382894,5.900501
0.825000,-10.455588,-4.286440,5.921328
0.845000,-10.282881,-4.196206,5.947321
0.865000,-10.117174,-4.097154,5.983349
0.885000,-9.971259,-4.001432,6.041904
0.905000,-9.830800,-3.924139,6.102574
0.925000,-9.684237,-3.861551,6.144678
0.945000,-9.539882,-3.809274,6.167488
0.965000,-9.420067,-3.767692,6.181714
0.985000,-9.341635,-3.732368,6.199446
1.005000,-9.272901,-3.697139,6.209182
1.025000,-9.181164,-3.661623,6.205508
1.045000,-9.083195,-3.623479,6.195178
1.065000,-8.996611,-3.577465,6.184636
1.085000,-8.898484,-3.525899,6.171751
1.105000,-8.771460,-3.473379,6.157067
1.125000,-8.620848,-3.421442,6.140151
1.145000,-8.455090,-3.368851,6.117310
1.165000,-8.279353,-3.318160,6.087829
1.185000,-8.089261,-3.275273,6.055625
1.205000,-7.882622,-3.239787,6.022051
1.225000,-7.667125,-3.205771,5.988116
1.245000,-7.447907,-3.169814,5.949133
1.265000,-7.230312,-3.132426,5.912092
1.285000,-7.014204,-3.097493,5.891551
1.305000,-6.772899,-3.060770,5.883402
1.325000,-6.479086,-3.025429,5.876528
1.345000,-6.131738,-2.987336,5.858541
1.365000,-5.798478,-2.944882,5.823104
1.385000,-5.540080,-2.899886,5.771113
1.405000,-5.345959,-2.842563,5.700057
1.425000,-5.160429,-2.771741,5.616704
1.445000,-4.973489,-2.687817,5.509198
1.465000,-4.916231,-2.586636,5.367276
1.485000,-5.025449,-2.512951,5.203872
1.505000,-5.133159,-2.494722,5.021603
1.525000,-5.224826,-2.491559,4.820121
1.545000,-5.418800,-2.483587,4.599917
1.565000,-5.726361,-2.530255,4.366940
1.585000,-5.989541,-2.620066,4.095945
1.605000,-5.946138,-2.699170,3.733544
1.625000,-5.658683,-2.740596,3.281878
1.645000,-5.281373,-2.836069,2.807978
1.665000,-5.019545,-2.995864,2.801167
1.685000,-7.361436,-5.077982,6.412585
1.705000,-8.944847,-11.536445,7.510898
1.725000,-4.672977,-11.514479,0.404478
1.749000,2.863412,-2.577357,-11.259392
1.769000,-0.846011,10.176889,-17.073456
1.789000,-3.143676,24.048393,-15.582840
1.809000,-1.198140,29.362888,-11.639219
1.829000,-0.888218,23.658659,-11.380771
1.849000,-0.049856,12.726022,-11.937984
1.869000,2.809307,-2.737178,-11.177548
1.889000,3.731574,-9.046768,-9.471448
1.909000,3.643705,-8.210636,-7.239674
1.929000,3.356393,-8.478413,-4.599371
1.949000,2.682736,-9.383547,-2.144181
1.969000,1.966913,-9.799372,-0.299459
1.989000,1.555833,-9.689944,0.901292
2.009000,1.743899,-9.376057,1.649933
2.029000,2.267896,-8.899321,2.092435
2.049000,2.858241,-8.385154,2.363164
2.069000,3.444251,-7.897862,2.829066
2.089000,3.876554,-7.300211,3.565157
2.109000,4.036306,-6.696568,4.510377
2.129000,3.842264,-6.456713,5.382209
2.149000,3.522861,-6.796956,5.975223
2.169000,3.408372,-7.231386,6.191678
2.189000,3.456515,-7.356771,6.200732
2.209000,3.435328,-7.183465,6.206565
2.229000,3.263902,-6.773839,6.306634
2.249000,2.933964,-6.226603,6.531982
2.269000,2.509875,-5.644588,6.838167
2.289000,2.047502,-5.065928,7.233626
2.309000,1.699408,-3.176241,8.054383
2.361000,1.566683,-2.314989,8.096045
2.381000,1.390422,-1.430318,8.075383
2.401000,1.213247,-0.602158,8.143576
2.421000,1.050410,0.194882,8.342740
2.441000,0.946503,0.869360,8.595594
2.461000,0.936491,1.262778,8.774866
2.481000,0.940708,1.313096,8.850878
2.501000,0.911923,1.128754,8.872296
2.521000,0.866173,0.912577,8.892650
2.541000,0.829638,0.791720,8.916385
2.561000,0.797932,0.692706,8.948207
2.581000,0.777956,0.560276,8.997128
2.601000,0.767861,0.480575,9.082785
2.621000,0.742861,0.487711,9.205193
2.641000,0.690996,0.449089,9.346607
2.661000,0.627810,0.344634,9.478399
2.681000,0.580482,0.268175,9.562264
2.701000,0.544390,0.265041,9.602650
2.721000,0.499255,0.314877,9.638488
2.741000,0.442453,0.396320,9.688707
2.761000,0.394355,0.452142,9.747128
2.781000,0.369335,0.455389,9.798300
2.801000,0.366926,0.447841,9.837903
2.821000,0.362873,0.429815,9.868846
2.841000,0.349340,0.378011,9.899070
2.861000,0.332232,0.305910,9.934989
2.881000,0.320503,0.243656,9.958726
2.901000,0.301567,0.188752,9.973341
2.921000,0.275031,0.128100,9.999926
2.941000,0.253176,0.069204,10.037491
2.961000,0.244787,0.010835,10.055502
2.981000,0.237305,-0.032815,10.066613
3.001000,0.225255,-0.039169,10.090714
3.021000,0.214881,-0.037490,10.119674
3.041000,0.205729,-0.065246,10.143078
3.061000,0.191201,-0.110365,10.176166
3.081000,0.176368,-0.137562,10.199923
3.101000,0.174728,-0.204507,10.208494
3.121000,0.173107,-0.324389,10.209801
3.141000,0.150868,-0.472947,10.216942
3.161000,0.119539,-0.579789,10.225047
3.181000,0.088110,-0.627721,10.230309
3.201000,0.054927,-0.650506,10.226192
3.221000,0.021448,-0.673530,10.215906
3.241000,-0.010489,-0.712279,10.204523
3.261000,-0.038371,-0.761349,10.204353
3.281000,-0.061223,-0.801648,10.212741
3.301000,-0.086524,-0.824214,10.228177
3.321000,-0.120165,-0.836849,10.255046
3.341000,-0.155219,-0.851328,10.271021
3.361000,-0.182518,-0.857342,10.276416
3.381000,-0.210988,-0.852797,10.275628
3.401000,-0.246891,-0.848353,10.275205
3.421000,-0.295617,-0.856637,10.276668
3.441000,-0.355172,-0.860250,10.278993
3.461000,-0.408477,-0.842403,10.278078
3.481000,-0.449918,-0.823465,10.279144
3.501000,-0.486481,-0.821872,10.281433
3.521000,-0.523451,-0.846957,10.282617
3.541000,-0.558694,-0.887945,10.283928
3.561000,-0.587664,-0.926910,10.282632
3.581000,-0.612615,-0.958575,10.282395
3.601000,-0.641310,-0.985538,10.285286
3.621000,-0.676747,-1.011513,10.288244
3.641000,-0.714415,-1.031216,10.288549
3.661000,-0.753489,-1.044139,10.288653
3.681000,-0.800329,-1.053935,10.285180
3.701000,-0.853369,-1.058130,10.277056
3.721000,-0.905218,-1.057986,10.268292
3.741000,-0.951118,-1.064988,10.264222
3.761000,-0.992196,-1.086164,10.259544
3.781000,-1.029609,-1.108614,10.253570
3.801000,-1.062865,-1.122261,10.251121
3.821000,-1.095410,-1.131432,10.250508
3.841000,-1.125384,-1.140931,10.248373
3.861000,-1.151552,-1.148620,10.248053
3.881000,-1.178708,-1.156979,10.251973
3.901000,-1.205243,-1.164772,10.254148
3.921000,-1.227040,-1.169856,10.253403
3.941000,-1.246261,-1.177081,10.254187
3.961000,-1.265151,-1.184748,10.256442
3.981000,-1.281575,-1.189656,10.258172
4.001000,-1.293070,-1.191594,10.261100
4.021000,-1.303283,-1.196165,10.265862
4.041000,-1.315238,-1.203495,10.268878
4.061000,-1.325848,-1.209809,10.270290
4.081000,-1.333759,-1.213922,10.271818
4.101000,-1.340120,-1.219876,10.274781
4.121000,-1.347215,-1.223507,10.278496
4.141000,-1.354973,-1.225896,10.281410
4.161000,-1.358425,-1.232712,10.284662
4.181000,-1.361928,-1.242512,10.288158
4.201000,-1.367337,-1.251019,10.290543
4.221000,-1.371668,-1.257843,10.291625
4.241000,-1.374339,-1.265513,10.293812
4.261000,-1.377895,-1.273901,10.296907
4.281000,-1.382755,-1.282407,10.298535
4.301000,-1.385935,-1.291335,10.299460
4.321000,-1.387313,-1.301149,10.302114
4.341000,-1.389603,-1.312333,10.305610
4.383000,-1.390816,-1.319830,10.307137
4.403000,-1.391104,-1.329509,10.309409
4.423000,-1.391383,-1.342242,10.311765
4.443000,-1.392554,-1.354357,10.312933
4.463000,-1.393522,-1.364235,10.313701
4.483000,-1.393386,-1.372106,10.315475
4.503000,-1.393187,-1.380551,10.318869
4.523000,-1.393845,-1.389464,10.321396
4.543000,-1.394550,-1.397282,10.322296
4.563000,-1.395461,-1.404532,10.323444
4.583000,-1.396568,-1.410821,10.324908
4.603000,-1.396963,-1.417877,10.326550
4.623000,-1.397256,-1.425960,10.327910
4.643000,-1.397480,-1.435446,10.329138
4.663000,-1.397669,-1.443669,10.330210
4.683000,-1.398239,-1.450560,10.332397
4.703000,-1.399263,-1.457347,10.334417
4.723000,-1.400610,-1.463704,10.336155
4.743000,-1.402498,-1.469196,10.337324
4.763000,-1.404601,-1.473023,10.338243
4.783000,-1.406068,-1.476013,10.339798
4.803000,-1.407642,-1.480205,10.341817
4.823000,-1.408633,-1.485341,10.342930
4.843000,-1.410064,-1.491030,10.344822
4.863000,-1.412003,-1.496697,10.346599
4.883000,-1.413503,-1.501979,10.347807
4.903000,-1.414865,-1.507219,10.348597
4.923000,-1.416461,-1.511231,10.350144
4.943000,-1.418336,-1.514153,10.351701
4.963000,-1.419865,-1.517532,10.353025
4.983000,-1.421034,-1.521598,10.354720
5.003000,-1.422104,-1.527430,10.354938
5.023000,-1.424550,-1.528068,10.357092
5.043000,-1.424872,-1.530846,10.359799
5.063000,-1.426854,-1.533362,10.360852
5.083000,-1.429091,-1.539032,10.360841
5.103000,-1.430034,-1.542017,10.361763
5.123000,-1.430722,-1.544818,10.363083
5.143000,-1.432384,-1.547493,10.365275
5.163000,-1.432976,-1.550870,10.366536
5.183000,-1.434088,-1.553341,10.367282
5.203000,-1.435334,-1.555619,10.369361
5.223000,-1.436974,-1.559007,10.371180
5.243000,-1.438406,-1.563214,10.372046
5.263000,-1.439919,-1.566700,10.372618
5.283000,-1.440747,-1.570273,10.373111
5.303000,-1.441639,-1.572694,10.374605
5.323000,-1.443168,-1.574229,10.376587
5.343000,-1.445280,-1.576827,10.377998
5.363000,-1.446533,-1.581625,10.377528
5.383000,-1.447055,-1.583502,10.378380
5.403000,-1.448195,-1.585288,10.380659
5.423000,-1.449802,-1.588684,10.382676
5.443000,-1.450723,-1.592406,10.382686
5.463000,-1.451203,-1.595061,10.382911
5.483000,-1.452708,-1.597235,10.384881
5.503000,-1.454534,-1.599674,10.386520
5.523000,-1.456030,-1.603453,10.387138
5.543000,-1.457750,-1.606907,10.388038
5.563000,-1.459501,-1.607813,10.389454
5.583000,-1.461402,-1.609835,10.390162
5.603000,-1.463835,-1.612460,10.391055
5.623000,-1.466267,-1.614435,10.392011
5.643000,-1.469058,-1.616415,10.391975
5.663000,-1.472611,-1.619141,10.392179
5.683000,-1.475459,-1.622654,10.392477
5.703000,-1.478062,-1.625533,10.392963
5.723000,-1.480831,-1.628120,10.393421
5.743000,-1.483596,-1.629580,10.393659
5.763000,-1.486740,-1.632366,10.394134
5.783000,-1.489782,-1.637039,10.394292
5.803000,-1.493176,-1.641259,10.394114
5.823000,-1.496727,-1.642396,10.394105
5.843000,-1.500435,-1.643282,10.394838
5.863000,-1.502884,-1.646123,10.394966
5.883000,-1.505500,-1.649988,10.394637
5.903000,-1.508474,-1.653073,10.394456
5.923000,-1.511585,-1.654714,10.394683
5.943000,-1.514713,-1.656578,10.394381
5.963000,-1.517546,-1.659430,10.394537
5.983000,-1.520208,-1.660648,10.395721
6.003000,-1.522052,-1.660418,10.396654
6.023000,-1.524597,-1.660549,10.397721
6.043000,-1.528049,-1.661565,10.398515
6.063000,-1.530175,-1.662906,10.398797
6.083000,-1.531920,-1.664329,10.398981
6.103000,-1.534557,-1.667175,10.399474
6.123000,-1.536976,-1.669202,10.399915
6.143000,-1.538318,-1.671472,10.401116
6.163000,-1.539934,-1.673336,10.401780
6.183000,-1.542922,-1.675254,10.401958
6.203000,-1.544276,-1.676434,10.401033
6.223000,-1.545736,-1.677674,10.401530
6.243000,-1.548140,-1.678901,10.402956
6.263000,-1.549178,-1.679566,10.403745
6.283000,-1.550614,-1.679242,10.404813
6.303000,-1.552992,-1.680359,10.404625
6.323000,-1.556017,-1.682325,10.404559
6.343000,-1.558079,-1.683842,10.405547
6.363000,-1.559257,-1.685918,10.406142
