gyro_time_list,gyro_x_list,gyro_y_list,gyro_z_list
0.310000,-4.365721,4.365588,4.365588
0.330000,-4.365721,4.365588,4.365588
0.350000,-4.365721,4.250876,4.365588
0.370000,-4.365721,4.003223,4.365588
0.390000,-4.365721,3.680183,4.365588
0.410000,-4.209064,3.339410,4.332569
0.430000,-3.816419,3.028405,4.209055
0.450000,-3.290482,2.775415,4.014750
0.470000,-2.728856,2.568384,3.766204
0.490000,-2.237186,2.376929,3.481794
0.510000,-1.875376,2.194668,3.188790
0.530000,-1.641756,2.021427,2.903587
0.550000,-1.511661,1.852955,2.634693
0.570000,-1.452165,1.688499,2.383129
0.590000,-1.429185,1.529946,2.150858
0.610000,-1.414033,1.378910,1.936859
0.630000,-1.387069,1.237667,1.738905
0.650000,-1.339192,1.109057,1.553925
0.670000,-1.268402,0.994910,1.377394
0.690000,-1.177008,0.894815,1.205206
0.710000,-1.071399,0.804994,1.033822
0.730000,-0.957082,0.721946,0.860684
0.750000,-0.837318,0.644510,0.683531
0.770000,-0.712382,0.572166,0.500708
0.790000,-0.581846,0.503709,0.311701
0.810000,-0.445668,0.437003,0.116911
0.830000,-0.304474,0.369903,-0.082762
0.850000,-0.158454,0.300874,-0.285474
0.870000,-0.002918,0.226007,-0.487623
0.890000,0.150769,0.143382,-0.682896
0.910000,0.271521,0.053283,-0.872314
0.930000,0.362002,-0.044700,-1.056008
0.950000,0.445721,-0.147255,-1.222886
0.970000,0.507142,-0.255203,-1.370336
0.990000,0.518491,-0.369440,-1.503802
1.010000,0.508739,-0.481640,-1.621051
1.030000,0.518205,-0.587448,-1.709850
1.050000,0.540082,-0.690001,-1.773213
1.070000,0.556796,-0.790100,-1.817129
1.090000,0.569447,-0.882547,-1.843051
1.110000,0.585676,-0.959330,-1.852382
1.130000,0.605391,-1.018775,-1.847206
1.150000,0.625048,-1.066270,-1.828873
1.170000,0.640385,-1.104589,-1.800509
1.190000,0.645995,-1.132248,-1.763282
1.210000,0.642015,-1.150303,-1.720399
1.230000,0.632734,-1.168491,-1.675600
1.250000,0.619051,-1.188561,-1.633751
1.270000,0.597637,-1.207337,-1.601398
1.290000,0.565548,-1.227099,-1.581000
1.310000,0.530920,-1.251037,-1.573137
1.330000,0.523863,-1.264942,-1.570662
1.350000,0.555993,-1.267676,-1.567252
1.370000,0.607255,-1.266594,-1.560752
1.390000,0.652874,-1.266190,-1.552658
1.410000,0.678194,-1.267908,-1.547527
1.430000,0.690130,-1.269707,-1.542408
1.450000,0.702619,-1.271058,-1.524985
1.470000,0.702512,-1.261299,-1.485989
1.490000,0.673189,-1.233623,-1.421603
1.510000,0.627588,-1.186530,-1.321187
1.530000,0.586190,-1.108722,-1.158481
1.550000,0.566447,-0.967405,-0.929052
1.570000,0.565583,-0.770612,-0.672367
1.590000,0.605913,-0.547003,-0.392142
1.610000,0.635280,-0.301774,-0.150418
1.630000,0.479518,-0.530668,-0.432729
1.650000,0.619534,-0.652175,-0.716705
1.670000,0.456592,-0.345016,-0.739123
1.690000,0.250707,-0.269478,-0.700806
1.711000,0.237353,-0.230012,-0.648831
1.731000,0.203785,-0.187286,-0.543693
1.751000,0.146180,-0.175926,-0.422974
1.771000,0.192787,-0.158791,-0.377214
1.791000,0.215985,-0.149147,-0.359825
1.811000,0.153761,-0.152873,-0.357421
1.831000,0.086905,-0.148629,-0.341094
1.851000,0.085997,-0.126513,-0.304238
1.871000,0.128855,-0.106266,-0.277186
1.891000,0.120080,-0.099229,-0.277203
1.911000,0.055300,-0.106029,-0.270794
1.931000,0.024115,-0.108338,-0.260382
1.951000,0.030127,-0.103760,-0.252420
1.971000,0.035575,-0.096885,-0.245998
1.991000,0.035036,-0.086952,-0.237478
2.011000,0.028965,-0.078564,-0.227689
2.031000,0.017338,-0.071266,-0.220892
2.051000,0.009201,-0.064184,-0.215140
2.071000,0.009348,-0.059049,-0.208421
2.091000,0.015452,-0.056286,-0.201843
2.111000,0.023185,-0.055700,-0.197108
2.131000,0.029357,-0.055959,-0.192978
2.151000,0.032078,-0.054797,-0.188108
2.171000,0.030515,-0.051735,-0.183746
2.191000,0.023950,-0.049021,-0.180796
2.211000,0.018511,-0.046578,-0.176858
2.231000,0.017360,-0.043570,-0.171771
2.251000,0.017137,-0.040446,-0.166841
2.271000,0.014127,-0.037466,-0.162176
2.291000,0.008087,-0.034923,-0.157665
2.363000,0.000151,-0.033332,-0.154996
2.383000,-0.009176,-0.032688,-0.153297
2.403000,-0.013058,-0.031505,-0.150837
2.423000,-0.012856,-0.029427,-0.147267
2.443000,-0.014475,-0.026906,-0.143326
2.463000,-0.019469,-0.024905,-0.140033
2.483000,-0.023685,-0.023246,-0.137111
2.503000,-0.025488,-0.021732,-0.134241
2.523000,-0.027421,-0.020167,-0.131260
2.543000,-0.032104,-0.018830,-0.128888
2.563000,-0.036357,-0.017913,-0.127000
2.583000,-0.038123,-0.016865,-0.124761
2.603000,-0.038122,-0.015642,-0.122138
2.623000,-0.039232,-0.014712,-0.119946
2.643000,-0.041237,-0.014069,-0.118106
2.663000,-0.042375,-0.013378,-0.116121
2.683000,-0.041915,-0.012496,-0.113788
2.703000,-0.040848,-0.011610,-0.111621
2.723000,-0.040315,-0.010919,-0.109722
2.743000,-0.040259,-0.010130,-0.107802
2.763000,-0.040552,-0.009310,-0.105888
2.783000,-0.040627,-0.008695,-0.104216
2.803000,-0.040573,-0.008272,-0.102787
2.823000,-0.040774,-0.007748,-0.101333
2.843000,-0.041516,-0.007185,-0.099981
2.863000,-0.042203,-0.006730,-0.098829
2.883000,-0.042957,-0.006363,-0.097677
2.903000,-0.044429,-0.005767,-0.096319
2.923000,-0.046274,-0.005320,-0.095147
2.943000,-0.047155,-0.005031,-0.094110
2.963000,-0.047009,-0.004657,-0.092996
2.983000,-0.047296,-0.004309,-0.091946
3.003000,-0.048046,-0.003940,-0.090958
3.023000,-0.048475,-0.003652,-0.090075
3.043000,-0.048609,-0.003280,-0.089030
3.063000,-0.048992,-0.002856,-0.087957
3.083000,-0.049625,-0.002401,-0.086910
3.103000,-0.049859,-0.002047,-0.085962
3.123000,-0.049793,-0.001770,-0.085026
3.143000,-0.050047,-0.001510,-0.084120
3.163000,-0.050432,-0.001229,-0.083193
3.183000,-0.050192,-0.000891,-0.082176
3.203000,-0.049746,-0.000582,-0.081194
3.223000,-0.049968,-0.000249,-0.080289
3.243000,-0.050592,-0.000005,-0.079546
3.263000,-0.050750,0.000231,-0.078794
3.283000,-0.050578,0.000483,-0.077954
3.303000,-0.050631,0.000741,-0.077130
3.323000,-0.050947,0.000981,-0.076416
3.343000,-0.051100,0.001165,-0.075763
3.363000,-0.051185,0.001342,-0.075113
3.383000,-0.051305,0.001572,-0.074349
3.403000,-0.051304,0.001854,-0.073597
3.423000,-0.051238,0.002103,-0.072920
3.443000,-0.051368,0.002318,-0.072276
3.463000,-0.051656,0.002500,-0.071675
3.483000,-0.051860,0.002694,-0.071085
3.503000,-0.051938,0.002850,-0.070549
3.523000,-0.052223,0.002985,-0.070061
3.543000,-0.052642,0.003165,-0.069549
3.563000,-0.052855,0.003393,-0.068976
3.583000,-0.052825,0.003549,-0.068458
3.603000,-0.052845,0.003732,-0.067832
3.623000,-0.052894,0.003899,-0.067265
3.643000,-0.052838,0.004095,-0.066708
3.663000,-0.052801,0.004267,-0.066164
3.683000,-0.052923,0.004433,-0.065599
3.703000,-0.053236,0.004565,-0.065072
3.723000,-0.053094,0.004724,-0.064534
3.743000,-0.052768,0.004913,-0.063976
3.763000,-0.052671,0.005121,-0.063418
3.783000,-0.052632,0.005271,-0.062928
3.803000,-0.052473,0.005409,-0.062462
3.823000,-0.052447,0.005544,-0.062010
3.843000,-0.052604,0.005668,-0.061605
3.863000,-0.052568,0.005795,-0.061189
3.883000,-0.052157,0.005944,-0.060690
3.903000,-0.052191,0.006131,-0.060159
3.923000,-0.052581,0.006307,-0.059692
3.943000,-0.052686,0.006474,-0.059267
3.963000,-0.052483,0.006657,-0.058798
3.983000,-0.052725,0.006804,-0.058371
4.003000,-0.053190,0.006909,-0.058030
4.023000,-0.053183,0.007032,-0.057676
4.043000,-0.052992,0.007188,-0.057244
4.063000,-0.053215,0.007327,-0.056808
4.083000,-0.053438,0.007475,-0.056412
4.103000,-0.053150,0.007618,-0.055980
4.123000,-0.052819,0.007814,-0.055465
4.143000,-0.052776,0.007957,-0.055049
4.163000,-0.052718,0.008094,-0.054672
4.183000,-0.052419,0.008221,-0.054253
4.203000,-0.052346,0.008351,-0.053820
4.223000,-0.052406,0.008495,-0.053410
4.243000,-0.052346,0.008629,-0.053051
4.263000,-0.052213,0.008750,-0.052683
4.283000,-0.052521,0.008892,-0.052294
4.303000,-0.052845,0.008995,-0.051973
4.323000,-0.052759,0.009092,-0.051672
4.343000,-0.052651,0.009214,-0.051313
4.385000,-0.052864,0.009380,-0.050974
4.405000,-0.052677,0.009557,-0.050610
4.425000,-0.052450,0.009686,-0.050229
4.445000,-0.052594,0.009800,-0.049876
4.465000,-0.052732,0.009950,-0.049505
4.485000,-0.052648,0.010078,-0.049167
4.505000,-0.052614,0.010209,-0.048810
4.525000,-0.052765,0.010344,-0.048467
4.545000,-0.052801,0.010487,-0.048135
4.565000,-0.052743,0.010610,-0.047827
4.585000,-0.052737,0.010733,-0.047505
4.605000,-0.052885,0.010866,-0.047179
4.625000,-0.052806,0.010993,-0.046867
4.645000,-0.052577,0.011136,-0.046516
4.665000,-0.052584,0.011266,-0.046193
4.685000,-0.052726,0.011381,-0.045908
4.705000,-0.052687,0.011479,-0.045615
4.725000,-0.052581,0.011607,-0.045276
4.745000,-0.052762,0.011711,-0.044999
4.765000,-0.053016,0.011795,-0.044758
4.785000,-0.053050,0.011867,-0.044509
4.805000,-0.053008,0.011984,-0.044197
4.825000,-0.053159,0.012099,-0.043884
4.845000,-0.053161,0.012213,-0.043588
4.865000,-0.052950,0.012322,-0.043304
4.885000,-0.052996,0.012436,-0.043011
4.905000,-0.053197,0.012552,-0.042742
4.925000,-0.053092,0.012666,-0.042474
4.945000,-0.052855,0.012774,-0.042175
4.965000,-0.053035,0.012878,-0.041893
4.985000,-0.053386,0.012968,-0.041670
5.005000,-0.053310,0.013062,-0.041409
5.025000,-0.053111,0.013167,-0.041111
5.045000,-0.053087,0.013219,-0.040890
5.065000,-0.053105,0.013272,-0.040663
5.085000,-0.053334,0.013354,-0.040425
5.105000,-0.053672,0.013368,-0.040294
5.125000,-0.053582,0.013313,-0.040136
5.145000,-0.054506,0.013157,-0.039939
5.165000,-0.057749,0.012934,-0.039802
5.185000,-0.059945,0.012677,-0.039692
5.205000,-0.059102,0.012538,-0.039255
5.225000,-0.058333,0.012482,-0.038721
5.245000,-0.058483,0.012148,-0.038704
5.265000,-0.058240,0.011866,-0.038610
5.285000,-0.056774,0.011805,-0.038152
5.305000,-0.054719,0.011639,-0.037805
5.325000,-0.052437,0.011328,-0.037512
5.345000,-0.050706,0.011050,-0.037063
5.365000,-0.049126,0.010762,-0.036530
5.385000,-0.047014,0.010292,-0.036296
5.405000,-0.044137,0.009925,-0.035797
5.425000,-0.041313,0.009866,-0.034675
5.445000,-0.037351,0.010064,-0.033373
5.465000,-0.032673,0.010405,-0.032311
5.485000,-0.031511,0.010415,-0.031501
5.505000,-0.033469,0.009859,-0.030849
5.525000,-0.033176,0.009596,-0.029874
5.545000,-0.029986,0.009658,-0.029196
5.565000,-0.028876,0.009186,-0.029495
5.585000,-0.031805,0.008177,-0.029946
5.605000,-0.033195,0.007505,-0.030494
5.625000,-0.033702,0.006927,-0.031695
5.645000,-0.036799,0.006241,-0.032958
5.665000,-0.042176,0.005740,-0.033670
5.685000,-0.045419,0.004807,-0.035544
5.705000,-0.048061,0.003414,-0.037527
5.725000,-0.052958,0.002343,-0.038389
5.745000,-0.054989,0.001549,-0.038766
5.765000,-0.052624,0.000954,-0.039203
5.785000,-0.051076,-0.000032,-0.040041
5.805000,-0.052802,-0.001115,-0.040674
5.825000,-0.053568,-0.002129,-0.041113
5.845000,-0.050458,-0.002705,-0.041239
5.865000,-0.046034,-0.003433,-0.041464
5.885000,-0.042755,-0.003487,-0.040874
5.905000,-0.039015,-0.003457,-0.039653
5.925000,-0.038942,-0.005174,-0.040268
5.945000,-0.039172,-0.006802,-0.040527
5.965000,-0.033471,-0.007329,-0.039921
5.985000,-0.023504,-0.007549,-0.039769
6.005000,-0.013255,-0.007744,-0.040533
6.025000,-0.004203,-0.007395,-0.040854
6.045000,0.001692,-0.006865,-0.040330
6.065000,0.005731,-0.007404,-0.040361
6.085000,0.010756,-0.007996,-0.041104
6.105000,0.018078,-0.008197,-0.042662
6.125000,0.026425,-0.008478,-0.044503
6.145000,0.034229,-0.009442,-0.046885
6.165000,0.041373,-0.010067,-0.049482
6.185000,0.048132,-0.010043,-0.051921
6.205000,0.053115,-0.010811,-0.053877
6.225000,0.055098,-0.011597,-0.055653
6.245000,0.055622,-0.010667,-0.056582
6.265000,0.055603,-0.009701,-0.056324
6.285000,0.055416,-0.009889,-0.056159
6.305000,0.055474,-0.009685,-0.055973
6.325000,0.055438,-0.008577,-0.055874
6.345000,0.055991,-0.007468,-0.055525
6.365000,0.056387,-0.007320,-0.055296
