accel_time_list,accel_x_list,accel_y_list,accel_z_list
0.28,-0.268151,2.260126,10.37886
0.3,-0.282516,2.110489,10.404
0.32,-0.349566,1.997334,10.52894
0.34,-0.332176,1.879394,10.59518
0.36,-0.265136,1.758841,10.59645
0.38,-0.234378,1.660145,10.62494
0.4,-0.218941,1.55103,10.69685
0.42,-0.166138,1.457697,10.74611
0.44,-0.104038,1.376262,10.75677
0.46,-0.066088,1.295769,10.79578
0.48,-0.063524,1.132854,10.87032
0.5,-0.023749,0.947704,10.93968
0.52,0.051023,0.795054,10.99257
0.54,0.125004,0.686257,11.04049
0.56,0.178785,0.596642,11.07382
0.58,0.218202,0.489646,11.0904
0.6,0.238756,0.36463,11.0971
0.62,0.260464,0.246635,11.09282
0.64,0.287371,0.134461,11.07504
0.66,0.301421,-0.026545,11.02392
0.68,0.32833,-0.220136,10.96999
0.7,0.360935,-0.386955,10.92397
0.72,0.381086,-0.500523,10.89968
0.74,0.382441,-0.576866,10.89144
0.76,0.38267,-0.648205,10.87145
0.78,0.405884,-0.716298,10.84329
0.8,0.427599,-0.793615,10.82981
0.82,0.437075,-0.896627,10.82144
0.84,0.464641,-1.007034,10.8088
0.86,0.510646,-1.101248,10.79112
0.88,0.548389,-1.175315,10.77607
0.9,0.572007,-1.242352,10.77067
0.92,0.599776,-1.308725,10.76672
0.94,0.631637,-1.372327,10.76104
0.96,0.65733,-1.42101,10.75416
0.98,0.676685,-1.459552,10.74202
1,0.699401,-1.48619,10.72859
1.02,0.734729,-1.499777,10.71205
1.04,0.774557,-1.509786,10.69214
1.06,0.813838,-1.520768,10.67441
1.08,0.847343,-1.538774,10.6602
1.1,0.878399,-1.553811,10.64677
1.12,0.907395,-1.561493,10.63397
1.14,0.929415,-1.571121,10.62403
1.16,0.947232,-1.584447,10.61683
1.18,0.96344,-1.596584,10.61001
1.2,0.978014,-1.605737,10.60276
1.22,0.99648,-1.620781,10.59494
1.24,1.011599,-1.644411,10.58751
1.26,1.018078,-1.660383,10.58223
1.28,1.023536,-1.666474,10.57921
1.3,1.031737,-1.680067,10.57811
1.32,1.03602,-1.705445,10.57469
1.34,1.035823,-1.725644,10.5723
1.36,1.036932,-1.739865,10.57163
1.38,1.038656,-1.760111,10.57199
1.4,1.03408,-1.779759,10.56968
1.42,1.026502,-1.791595,10.5616
1.44,1.029112,-1.802203,10.54835
1.46,1.035591,-1.817745,10.53001
1.48,1.029246,-1.832458,10.51008
1.5,1.01768,-1.843809,10.48507
1.52,1.012846,-1.855146,10.44812
1.54,1.007202,-1.86657,10.40459
1.56,0.998116,-1.87253,10.36006
1.58,0.990262,-1.874696,10.31303
1.6,0.988532,-1.87569,10.25506
1.62,0.983467,-1.876367,10.18288
1.64,0.972533,-1.877885,10.10537
1.66,0.962965,-1.879794,10.02719
1.68,0.955644,-1.880052,9.94687
1.7,0.951129,-1.873949,9.85105
1.72,0.941674,-1.865572,9.738602
1.74,0.928383,-1.858459,9.618765
1.76,0.919235,-1.853264,9.498866
1.78,0.905814,-1.848558,9.379756
1.8,0.885527,-1.83803,9.253881
1.82,0.855081,-1.822719,9.108374
1.84,0.805789,-1.800637,8.94696
1.86,0.723042,-1.778265,8.77608
1.88,0.589928,-1.764434,8.595967
1.9,0.415623,-1.770187,8.408566
1.92,0.26221,-1.802704,8.208104
1.94,0.132985,-1.846724,8.033463
1.96,-0.057672,-1.905874,7.911582
1.98,-0.243479,-1.984185,7.713752
2,-0.289784,-2.021724,7.25904
2.02,-0.336557,-2.003446,6.759611
2.04,-0.495348,-2.092207,6.921289
2.06,-1.039059,-2.428575,7.716258
2.08,-1.361443,-2.841292,8.082219
2.1,0.102758,-3.109063,12.24556
2.12,1.127998,-5.632269,22.75531
2.14,3.579415,-14.62755,10.00478
2.16,2.377229,-17.13667,3.787663
2.18,0.786968,-14.51354,3.115195
2.2,-1.393677,-10.02895,5.211428
2.22,-4.666372,-6.12696,6.876885
2.24,-7.734874,-4.732018,6.931837
2.26,-8.844191,-4.566343,5.857486
2.431,-5.819573,-3.843375,4.187754
2.451,-3.08972,-3.063137,3.024831
2.471,-0.861861,-2.318017,2.575299
2.491,1.241814,-1.580199,2.381701
2.511,3.196352,-0.83267,2.218674
2.531,4.631897,-0.113509,2.050977
2.551,5.547779,0.553818,1.863064
2.571,6.146502,1.117438,1.670863
2.591,6.628581,1.563972,1.498874
2.611,7.079364,1.888541,1.380343
2.631,7.473507,2.11127,1.337143
2.651,7.763635,2.302432,1.373709
2.671,7.9718,2.48861,1.469007
2.691,8.13566,2.643656,1.583265
2.711,8.209271,2.657255,1.687548
2.731,8.253839,2.56688,1.776862
2.751,8.258706,2.411461,1.850168
2.771,8.176864,2.242403,1.921884
2.791,8.014053,2.116847,2.00389
2.811,7.820529,2.041283,2.095116
2.831,7.63099,2.00071,2.201973
2.851,7.453727,1.999103,2.324452
2.871,7.269501,2.020472,2.459496
2.891,7.071257,2.052101,2.595091
2.911,6.831803,2.164105,2.773027
2.931,6.512033,2.308391,3.197715
2.951,6.056792,2.366253,3.988874
2.971,5.536401,2.228848,4.907873
2.991,5.164514,1.88739,5.699852
3.011,5.096048,1.44329,6.270943
3.031,5.051622,1.057884,6.571725
3.051,5.05843,0.745773,6.675376
3.071,5.055882,0.517858,6.819021
3.091,4.846648,0.371046,7.188317
3.111,4.53696,0.186626,7.661844
3.131,4.266122,-0.135924,7.88207
3.151,3.986294,-0.747354,7.911669
3.171,3.873108,-1.457114,7.875451
3.191,3.93142,-2.049618,7.678136
3.211,3.96098,-2.584935,7.682584
3.231,3.870013,-3.225812,7.831826
3.251,3.694899,-3.74464,7.950101
3.271,3.618771,-3.807455,8.052979
3.291,3.655336,-3.657028,8.158711
3.311,3.662925,-3.504039,8.278485
3.331,3.597579,-3.450943,8.402064
3.351,3.52482,-3.448986,8.494666
3.371,3.451813,-3.482156,8.556072
3.391,3.361279,-3.528405,8.608703
3.411,3.26661,-3.539599,8.656604
3.431,3.180423,-3.512447,8.696741
3.451,3.103887,-3.462705,8.733145
3.471,3.039021,-3.409307,8.765044
3.491,2.981044,-3.37241,8.795686
3.511,2.932265,-3.362674,8.829
3.531,2.889193,-3.37845,8.878917
3.551,2.849162,-3.419152,8.941804
3.571,2.820021,-3.481952,8.99462
3.591,2.799769,-3.556835,9.030169
3.611,2.783865,-3.625384,9.058393
3.631,2.765832,-3.686557,9.079817
3.651,2.742285,-3.744142,9.094566
3.671,2.72319,-3.781061,9.103308
3.691,2.699825,-3.802804,9.109035
3.711,2.67556,-3.820982,9.11444
3.731,2.653623,-3.842129,9.120704
3.751,2.632509,-3.872489,9.127959
3.771,2.61376,-3.90922,9.139302
3.791,2.595734,-3.947222,9.154139
3.811,2.578202,-3.982069,9.172192
3.831,2.559743,-4.012386,9.191096
3.851,2.542121,-4.035175,9.20705
3.871,2.525872,-4.050953,9.220507
3.891,2.51052,-4.061832,9.232066
3.911,2.495171,-4.070739,9.240764
3.931,2.479545,-4.078951,9.24743
3.951,2.463979,-4.087321,9.254247
3.971,2.447984,-4.098984,9.261739
3.991,2.433372,-4.114391,9.269974
4.011,2.420027,-4.130425,9.278092
4.031,2.407785,-4.142426,9.28595
4.051,2.396444,-4.15151,9.29485
4.071,2.385413,-4.161698,9.303767
4.091,2.374431,-4.172877,9.311934
4.111,2.363639,-4.183615,9.318818
4.131,2.354264,-4.193153,9.325505
4.151,2.344368,-4.203146,9.332646
4.171,2.334342,-4.214177,9.338959
4.191,2.324007,-4.223615,9.345147
4.211,2.314452,-4.231682,9.351043
4.231,2.306045,-4.239072,9.35571
4.251,2.298387,-4.246481,9.360606
4.271,2.289981,-4.252511,9.365847
4.291,2.281962,-4.258787,9.370922
4.311,2.275238,-4.265794,9.375393
4.331,2.269217,-4.27408,9.380407
4.351,2.262565,-4.283108,9.385588
4.371,2.254779,-4.290858,9.390733
4.391,2.248212,-4.297426,9.395305
4.411,2.242505,-4.30303,9.398946
4.586,2.23704,-4.309245,9.402857
4.606,2.231617,-4.313755,9.406953
4.626,2.225893,-4.317883,9.411409
4.646,2.220515,-4.322798,9.415276
4.666,2.215061,-4.32847,9.418572
4.686,2.209865,-4.33394,9.420653
4.706,2.204627,-4.338984,9.423232
4.726,2.19967,-4.344415,9.426531
4.746,2.194878,-4.350404,9.430016
4.766,2.190176,-4.35638,9.433009
4.786,2.1858,-4.362233,9.436357
4.806,2.181571,-4.367319,9.439064
4.826,2.177481,-4.371593,9.441509
4.846,2.173094,-4.375296,9.443414
4.866,2.168648,-4.37883,9.445144
4.886,2.164375,-4.383029,9.447393
4.906,2.160624,-4.387801,9.449527
4.926,2.157123,-4.392219,9.452067
4.946,2.153641,-4.396162,9.454731
4.966,2.150336,-4.400205,9.457094
4.986,2.146736,-4.404085,9.459285
5.006,2.143495,-4.408129,9.460928
5.026,2.140024,-4.413003,9.462852
5.046,2.136209,-4.417261,9.464732
5.066,2.132716,-4.420076,9.466742
5.086,2.130067,-4.422051,9.468651
5.106,2.127331,-4.424866,9.470185
5.126,2.124625,-4.428857,9.471934
5.146,2.121549,-4.43324,9.473237
5.166,2.118566,-4.437352,9.474161
5.186,2.116292,-4.441229,9.475359
5.206,2.114012,-4.444586,9.476611
5.226,2.111475,-4.446772,9.478597
5.246,2.108582,-4.449282,9.480777
5.266,2.105881,-4.452418,9.482245
5.286,2.103208,-4.45532,9.48315
5.306,2.100854,-4.458246,9.484011
5.326,2.098758,-4.461249,9.485179
5.346,2.096312,-4.464766,9.487117
5.366,2.093991,-4.468756,9.488969
5.386,2.092075,-4.472563,9.490738
5.406,2.090297,-4.475871,9.491896
5.426,2.088453,-4.478956,9.492673
5.446,2.08627,-4.4813,9.493587
5.466,2.084176,-4.482687,9.494635
5.486,2.082072,-4.483736,9.495696
5.506,2.080276,-4.485631,9.496938
5.526,2.078609,-4.488529,9.498143
5.546,2.076973,-4.492177,9.499456
5.566,2.075237,-4.495736,9.500661
5.586,2.073327,-4.498219,9.501902
5.606,2.07158,-4.499895,9.503057
5.626,2.069922,-4.501272,9.503723
5.646,2.068328,-4.503323,9.504502
5.666,2.066415,-4.505768,9.505393
5.686,2.064546,-4.508092,9.506347
5.706,2.063006,-4.510368,9.507602
5.726,2.061074,-4.512742,9.508749
5.746,2.059019,-4.514708,9.509933
5.766,2.05696,-4.516176,9.511271
5.786,2.055233,-4.517534,9.512502
5.806,2.053738,-4.519141,9.513288
5.826,2.052091,-4.521379,9.513924
5.846,2.050388,-4.524169,9.514528
5.866,2.048918,-4.526931,9.515199
5.886,2.047463,-4.528827,9.516102
5.906,2.045496,-4.529603,9.517475
5.926,2.043643,-4.530324,9.518907
5.946,2.041786,-4.531636,9.520084
5.966,2.039827,-4.533413,9.520963
5.986,2.038104,-4.535125,9.521569
6.006,2.036733,-4.5367,9.522313
6.026,2.03528,-4.538308,9.523409
6.046,2.033745,-4.540521,9.524829
6.066,2.031771,-4.543096,9.526258
6.086,2.0302,-4.545429,9.527554
6.106,2.028645,-4.546997,9.528334
6.126,2.027225,-4.547998,9.528986
6.146,2.025771,-4.548558,9.529823
6.166,2.024212,-4.549209,9.530604
6.186,2.022956,-4.550404,9.531497
6.206,2.021808,-4.552066,9.532022
6.226,2.0206,-4.554501,9.532948
6.246,2.019212,-4.556577,9.533818
6.266,2.017863,-4.558368,9.534895
6.286,2.016478,-4.55995,9.535841
6.306,2.015084,-4.561086,9.536538
6.326,2.013799,-4.562042,9.537252
6.346,2.012336,-4.56318,9.537864
6.366,2.010888,-4.564714,9.538373
6.386,2.009525,-4.566353,9.539212
6.406,2.008201,-4.567616,9.539948
6.426,2.006889,-4.569177,9.540938
6.446,2.005758,-4.570867,9.541872
6.466,2.004495,-4.572036,9.543083
6.486,2.003412,-4.572907,9.54421
6.506,2.002173,-4.573889,9.544871
6.526,2.001209,-4.575459,9.545262
6.546,2.000207,-4.577493,9.545291
6.566,1.999023,-4.57989,9.545295
7.302,1.997708,-4.579293,9.545131
7.322,1.997076,-4.578464,9.545759
7.342,1.996761,-4.578432,9.546884
7.362,1.995852,-4.580699,9.549003
7.382,1.994568,-4.584069,9.550215
7.402,1.993488,-4.586663,9.55096
7.422,1.993018,-4.587364,9.551338
7.442,1.992625,-4.587387,9.551306
7.462,1.991948,-4.589325,9.551489
7.482,1.989865,-4.593543,9.552293
7.502,1.987947,-4.598508,9.553161
7.522,1.987078,-4.600791,9.553038
7.542,1.9866,-4.599195,9.552413
7.562,1.986414,-4.595772,9.552274
7.582,1.986326,-4.593771,9.553573
7.602,1.985329,-4.594832,9.555552
7.622,1.983145,-4.598348,9.55768
7.642,1.9806,-4.600727,9.558254
7.662,1.979708,-4.599922,9.557985
7.682,1.979687,-4.598144,9.557384
7.702,1.979164,-4.597126,9.55765
7.722,1.97764,-4.597602,9.558799
7.742,1.976083,-4.599342,9.560104
7.762,1.974734,-4.601855,9.56087
7.782,1.974092,-4.604607,9.561581
7.802,1.973194,-4.60678,9.562954
7.822,1.971634,-4.607327,9.564265
7.842,1.970712,-4.606815,9.564941
7.862,1.970422,-4.606429,9.56494
7.882,1.970469,-4.60674,9.565011
7.902,1.970182,-4.60779,9.565632
7.922,1.969155,-4.608854,9.566725
7.942,1.968306,-4.609812,9.567616
7.962,1.967321,-4.610903,9.56845
7.982,1.966179,-4.612103,9.568892
8.002,1.964953,-4.61231,9.569355
8.022,1.964146,-4.611438,9.569837
8.042,1.96373,-4.610167,9.570481
8.062,1.963126,-4.609818,9.57088
8.082,1.962217,-4.610886,9.571657
8.102,1.961318,-4.612805,9.572259
8.122,1.960332,-4.614274,9.573047
8.142,1.959954,-4.615033,9.573491
8.162,1.960058,-4.616168,9.57429
8.182,1.959061,-4.617819,9.575274
8.202,1.957762,-4.618663,9.576055
8.222,1.957051,-4.618493,9.576565
8.242,1.956658,-4.617654,9.576735
8.262,1.956293,-4.61723,9.576831
8.282,1.955596,-4.617434,9.577262
8.302,1.954882,-4.61809,9.578119
8.322,1.954798,-4.619243,9.579567
8.342,1.954284,-4.620982,9.581359
8.362,1.953943,-4.623542,9.58275
8.382,1.954467,-4.626699,9.582858
8.402,1.955728,-4.628412,9.581002
8.422,1.954846,-4.627762,9.580266
8.442,1.951673,-4.62774,9.581118
8.462,1.949323,-4.62906,9.583421
8.482,1.947667,-4.630558,9.587544
8.502,1.946817,-4.632304,9.591004
8.522,1.947843,-4.633793,9.592897
8.542,1.949577,-4.635171,9.594915
8.562,1.950289,-4.637422,9.597942
8.582,1.949748,-4.641063,9.602184
8.602,1.948159,-4.646175,9.60806
8.622,1.944575,-4.653607,9.621945
8.642,1.938489,-4.666878,9.64728
8.662,1.928705,-4.69419,9.67612
8.682,1.921676,-4.733176,9.703642
8.702,1.925132,-4.776944,9.730433
8.722,1.931068,-4.836506,9.760716
8.742,1.939841,-4.897437,9.785142
8.762,1.953483,-4.936401,9.801446
8.782,1.974242,-4.948784,9.811099
8.802,2.000325,-4.946869,9.820368
8.822,2.026865,-4.937862,9.826862
8.842,2.0512,-4.920039,9.825391
8.862,2.078213,-4.892722,9.813017
8.882,2.111492,-4.853611,9.79854
8.902,2.150208,-4.808498,9.779108
8.922,2.186502,-4.763525,9.751779
8.942,2.219488,-4.71692,9.719071
8.962,2.252695,-4.66446,9.685255
8.982,2.285139,-4.605176,9.648641
9.002,2.310148,-4.533522,9.609471
9.022,2.329831,-4.443957,9.568874
9.042,2.35389,-4.330322,9.525739
9.062,2.385777,-4.193079,9.477959
9.082,2.415286,-4.033491,9.430393
9.102,2.435474,-3.850205,9.389264
9.122,2.455579,-3.642231,9.350558
9.142,2.480392,-3.414972,9.308146
9.162,2.503161,-3.175556,9.264839
9.182,2.523739,-2.918866,9.225901
9.202,2.546409,-2.638389,9.188096
9.222,2.569069,-2.336812,9.149058
9.242,2.586665,-2.018268,9.116766
9.262,2.601955,-1.674777,9.091026
9.282,2.619797,-1.296906,9.064789
9.441,2.61905,-0.880285,9.03616
9.461,2.627264,-0.440399,9.002516
9.481,2.63609,0.008701,8.969201
9.501,2.638819,0.452226,8.937103
9.521,2.642167,0.889743,8.902798
9.541,2.641339,1.376651,8.869392
9.561,2.64641,1.797844,8.830072
9.581,2.650256,2.108428,8.791203
9.601,2.655764,2.372739,8.75467
9.621,2.671895,2.588209,8.711952
9.641,2.665575,2.878647,8.677593
9.661,2.650339,3.188902,8.65135
9.681,2.646461,3.514658,8.618852
9.701,2.650115,3.821048,8.577209
9.721,2.651315,4.105216,8.533452
9.741,2.648672,4.356101,8.491453
9.761,2.652257,4.667368,8.441674
9.781,2.652717,4.901901,8.384425
9.801,2.660522,5.084063,8.324741
9.821,2.662313,5.315334,8.272859
9.841,2.664611,5.537881,8.225287
9.861,2.666193,5.650566,8.180938
9.881,2.677383,5.777164,8.136751
9.901,2.675772,5.914247,8.097455
9.921,2.680834,6.051375,8.054942
9.941,2.689124,6.164343,8.004767
9.961,2.694794,6.257702,7.947887
9.981,2.696912,6.355427,7.891925
10.001,2.699535,6.456967,7.838391
10.021,2.70376,6.550621,7.786498
10.041,2.707919,6.625294,7.737317
10.061,2.710336,6.687531,7.694684
10.081,2.713424,6.750484,7.655719
10.101,2.716815,6.821821,7.616874
10.121,2.719431,6.892759,7.578105
10.141,2.719483,6.953966,7.541151
10.161,2.719414,7.008048,7.501097
10.181,2.721118,7.055254,7.457217
10.201,2.723188,7.091177,7.414615
10.221,2.723897,7.120613,7.377871
10.241,2.724574,7.148246,7.34242
10.261,2.726226,7.178039,7.307174
10.281,2.727647,7.210559,7.273031
10.301,2.729125,7.245557,7.240177
10.321,2.730205,7.281456,7.207613
10.341,2.732734,7.321338,7.175712
10.361,2.734951,7.355227,7.145641
10.381,2.736476,7.38095,7.117759
10.401,2.737793,7.409881,7.091756
10.421,2.740128,7.437163,7.063476
10.441,2.740906,7.456137,7.034652
10.461,2.740192,7.474058,7.010531
10.481,2.739126,7.493329,6.986696
10.501,2.740442,7.51591,6.960273
10.521,2.744856,7.53045,6.930571
10.541,2.745228,7.545675,6.907955
10.561,2.744543,7.565751,6.889854
10.581,2.742476,7.592913,6.873937
10.601,2.746248,7.602682,6.849301
10.621,2.749264,7.611853,6.825573
10.641,2.747628,7.628807,6.805185
10.661,2.744884,7.652713,6.789421
10.681,2.745567,7.665819,6.774899
10.701,2.747082,7.669203,6.759071
10.721,2.746857,7.676168,6.742812
10.741,2.745772,7.691766,6.725669
10.761,2.745896,7.708645,6.706246
10.781,2.745084,7.720843,6.685656
10.801,2.744807,7.730188,6.663049
10.821,2.743911,7.742065,6.641192
10.841,2.743981,7.754927,6.623425
10.861,2.744171,7.76831,6.607979
10.881,2.744981,7.778274,6.59057
10.901,2.745734,7.785788,6.572155
10.921,2.745427,7.795677,6.556455
10.941,2.744453,7.808335,6.542427
10.961,2.744207,7.819463,6.52587
10.981,2.74492,7.828462,6.506752
11.001,2.745412,7.83869,6.489655
11.021,2.745539,7.849422,6.474046
11.041,2.746047,7.860306,6.456169
11.061,2.747198,7.867382,6.437355
11.081,2.746086,7.874408,6.422913
11.101,2.745512,7.883009,6.409551
11.121,2.745638,7.892209,6.395252
11.141,2.746026,7.897745,6.381378
11.161,2.74483,7.90304,6.369664
11.181,2.743,7.909457,6.357852
11.201,2.741858,7.917182,6.346639
11.221,2.741351,7.922928,6.33539
11.241,2.740728,7.928366,6.324828
11.261,2.739777,7.934467,6.314147
11.281,2.739578,7.941026,6.303528
11.301,2.739284,7.948822,6.294588
11.321,2.738443,7.956033,6.285155
11.341,2.737538,7.962677,6.27375
11.361,2.737409,7.967373,6.26351
11.381,2.737209,7.972053,6.25595
11.401,2.736508,7.976544,6.247954
11.421,2.735887,7.981296,6.239196
