accel_time_list,accel_x_list,accel_y_list,accel_z_list
0.545,-3.423708,-5.494693,3.964798
0.565,-4.12521,-6.126762,3.851073
0.585,-5.034395,-6.803119,3.613285
0.605,-5.764765,-7.08455,3.572202
0.625,-6.356834,-7.030878,3.575566
0.645,-6.924197,-6.84977,3.669298
0.665,-7.525684,-6.692087,3.73334
0.685,-8.183381,-6.591452,3.775061
0.705,-8.802962,-6.506172,3.807503
0.725,-9.296238,-6.417369,3.837088
0.745,-9.626079,-6.324247,3.833623
0.765,-9.818732,-6.222013,3.782111
0.785,-9.915564,-6.093497,3.685398
0.805,-9.941466,-5.941198,3.573722
0.825,-9.930496,-5.787242,3.468069
0.845,-9.912507,-5.673587,3.368443
0.865,-9.894818,-5.624338,3.270501
0.885,-9.868235,-5.644707,3.167533
0.905,-9.811322,-5.704638,3.046593
0.925,-9.720994,-5.782202,2.908191
0.945,-9.610261,-5.872211,2.758689
0.965,-9.482978,-5.97083,2.60397
0.985,-9.347266,-6.086776,2.458036
1.005,-9.210109,-6.215327,2.320305
1.025,-9.079761,-6.346536,2.184752
1.045,-8.970895,-6.464011,2.058097
1.065,-8.878426,-6.558757,1.954922
1.085,-8.798962,-6.637224,1.881734
1.105,-8.731359,-6.704179,1.824531
1.125,-8.672107,-6.75998,1.773303
1.145,-8.615081,-6.810977,1.730013
1.165,-8.558545,-6.866332,1.6939
1.185,-8.505239,-6.933774,1.66744
1.205,-8.465579,-6.998133,1.650448
1.225,-8.436028,-7.059194,1.629907
1.245,-8.409708,-7.115333,1.599634
1.265,-8.372531,-7.160106,1.560853
1.285,-8.308578,-7.187149,1.526538
1.305,-8.206474,-7.214185,1.483633
1.325,-8.055217,-7.257732,1.419781
1.345,-7.863324,-7.310198,1.341694
1.365,-7.64778,-7.368755,1.248654
1.385,-7.412766,-7.426824,1.150308
1.405,-7.155819,-7.478999,1.032351
1.425,-6.870309,-7.520458,0.912422
1.445,-6.549934,-7.535499,0.800188
1.465,-6.183019,-7.519223,0.682344
1.485,-5.786403,-7.485293,0.584475
1.505,-5.374398,-7.434286,0.51816
1.525,-4.939876,-7.3744,0.437607
1.545,-4.486903,-7.312078,0.360745
1.565,-4.022768,-7.248478,0.280549
1.585,-3.55555,-7.186823,0.196035
1.605,-3.090881,-7.139715,0.08901
1.625,-2.626446,-7.106418,-0.018891
1.645,-2.172355,-7.086062,-0.134033
1.665,-1.734262,-7.068496,-0.249634
1.685,-1.326311,-7.053802,-0.365711
1.705,-0.953521,-7.050533,-0.493035
1.725,-0.617155,-7.063199,-0.619427
1.745,-0.327708,-7.085894,-0.748224
1.765,-0.084805,-7.111122,-0.855056
1.785,0.1222,-7.128668,-0.940988
1.805,0.305721,-7.136744,-1.018529
1.825,0.477355,-7.144475,-1.094602
1.845,0.63646,-7.15648,-1.172717
1.865,0.779554,-7.161262,-1.224461
1.885,0.907046,-7.144782,-1.244954
1.905,1.027397,-7.10523,-1.262752
1.925,1.141786,-7.06367,-1.315053
1.945,1.253694,-7.035184,-1.406432
1.965,1.371224,-7.015203,-1.52196
1.985,1.487839,-6.997932,-1.653312
2.005,1.594175,-6.982229,-1.786824
2.025,1.703385,-6.957626,-1.902444
2.045,1.818685,-6.911563,-1.998243
2.065,1.937093,-6.846049,-2.086548
2.085,2.067973,-6.769739,-2.18402
2.105,2.201734,-6.687424,-2.282249
2.125,2.31122,-6.597881,-2.360265
2.145,2.388439,-6.491334,-2.419468
2.165,2.464686,-6.353292,-2.477651
2.185,2.544959,-6.189349,-2.521404
2.205,2.603025,-6.039052,-2.556936
2.225,2.639264,-5.913239,-2.608824
2.245,2.666672,-5.774551,-2.666576
2.265,2.672665,-5.618041,-2.701378
2.285,2.658204,-5.508135,-2.699889
2.305,2.624589,-5.491253,-2.669123
2.325,2.606323,-5.510251,-2.607657
2.345,2.630674,-5.433079,-2.537366
2.365,2.780446,-5.317626,-2.624689
2.385,3.086436,-5.460003,-2.965678
2.405,3.293143,-5.914411,-3.373036
2.425,3.206412,-6.659722,-3.58964
2.445,3.27115,-7.502721,-3.623883
2.465,3.661868,-8.300341,-3.700501
2.485,3.929772,-9.434682,-4.155029
2.505,3.707162,-9.893807,-4.712908
2.525,3.705889,-10.28387,-4.843662
2.698,3.401174,-10.42745,-4.919327
2.718,2.97879,-10.60332,-5.024299
2.738,2.575357,-10.61086,-5.017779
2.758,2.254034,-10.38985,-4.8075
2.778,1.96579,-10.03768,-4.481679
2.798,1.653058,-9.67243,-4.154652
2.818,1.445932,-9.263341,-3.981292
2.838,1.076113,-8.936914,-3.912782
2.858,-0.122948,-8.948026,-3.591806
2.878,-1.504669,-8.746381,-3.369575
2.898,-8.541104,-11.38,0.611654
2.918,-12.01474,-13.11358,4.816384
2.938,-7.794429,-9.311689,0.350911
2.958,-6.558347,-2.135092,-1.594148
2.978,-9.486481,4.240783,3.05205
2.998,-10.10122,-0.8164,5.428709
3.018,-6.631853,-8.453865,2.940564
3.038,-7.117949,-11.37514,3.09016
3.058,-6.962803,-8.981161,3.792333
3.078,-6.083923,-5.98597,5.090221
3.098,-6.019991,-5.699394,4.913467
3.118,-5.98287,-7.287582,4.566538
3.138,-5.921241,-7.935362,4.450177
3.158,-5.894615,-7.24066,4.670312
3.178,-5.841766,-6.75389,4.926029
3.198,-5.698339,-6.838073,5.073025
3.218,-5.498162,-7.020457,5.120334
3.238,-5.311294,-7.116075,5.159708
3.258,-5.143762,-7.160602,5.22995
3.278,-4.988049,-7.185742,5.328257
3.298,-4.843466,-7.166875,5.437334
3.318,-4.696078,-7.118817,5.542123
3.338,-4.541011,-7.024024,5.651346
3.358,-4.378972,-6.990198,5.770288
3.378,-4.17296,-6.995871,5.873298
3.398,-3.961663,-7.032808,5.987639
3.418,-3.721131,-7.022678,6.095023
3.438,-3.467701,-6.986296,6.172385
3.458,-3.233502,-6.973901,6.203105
3.478,-3.01749,-7.06109,6.199419
3.498,-2.798156,-7.210245,6.156628
3.518,-2.605388,-7.363064,6.093831
3.538,-2.458953,-7.492539,6.043641
3.558,-2.367647,-7.56167,6.005847
3.578,-2.336474,-7.591847,5.98379
3.598,-2.323961,-7.602479,5.980645
3.618,-2.300255,-7.612369,5.997009
3.638,-2.266794,-7.62357,6.005506
3.658,-2.21738,-7.646258,6.003321
3.678,-2.158904,-7.677329,6.004488
3.698,-2.09802,-7.697919,6.013107
3.718,-2.045205,-7.703202,6.026783
3.738,-1.99461,-7.70068,6.048263
3.758,-1.945324,-7.693739,6.072982
3.778,-1.895037,-7.686467,6.098423
3.798,-1.844209,-7.68226,6.12235
3.818,-1.794518,-7.68036,6.140344
3.838,-1.74702,-7.685346,6.153369
3.858,-1.704139,-7.694166,6.162138
3.878,-1.666295,-7.70358,6.16997
3.898,-1.635409,-7.711752,6.175697
3.918,-1.607995,-7.719709,6.183496
3.938,-1.582998,-7.726119,6.187459
3.958,-1.557789,-7.73414,6.188648
3.978,-1.535277,-7.749001,6.18635
3.998,-1.509527,-7.766805,6.185421
4.018,-1.479907,-7.786279,6.183081
4.038,-1.44494,-7.808633,6.171835
4.058,-1.409667,-7.821265,6.161898
4.078,-1.386752,-7.852544,6.160234
4.098,-1.35995,-7.849334,6.168321
4.118,-1.33001,-7.832805,6.176599
4.138,-1.294396,-7.838631,6.178974
4.158,-1.251954,-7.858467,6.173485
4.178,-1.212559,-7.877308,6.164514
4.198,-1.176968,-7.894247,6.154835
4.218,-1.148877,-7.911418,6.147647
4.238,-1.127836,-7.920131,6.145563
4.258,-1.111565,-7.922612,6.146621
4.278,-1.098803,-7.925327,6.147815
4.298,-1.084332,-7.932362,6.146299
4.318,-1.066094,-7.943282,6.142544
4.338,-1.047018,-7.954708,6.138253
4.358,-1.027454,-7.964589,6.133935
4.378,-1.008049,-7.972766,6.130547
4.398,-0.989521,-7.979868,6.128048
4.418,-0.970753,-7.986195,6.125898
4.438,-0.952969,-7.992742,6.124196
4.458,-0.935326,-7.999087,6.121304
4.478,-0.919102,-8.005851,6.118645
4.498,-0.904586,-8.013179,6.116319
4.518,-0.891563,-8.019818,6.114059
4.538,-0.87945,-8.025757,6.112112
4.558,-0.867878,-8.031602,6.110466
4.578,-0.856685,-8.036095,6.109107
4.598,-0.845443,-8.040686,6.10789
4.618,-0.833791,-8.04537,6.106199
4.638,-0.822188,-8.050072,6.104387
4.658,-0.810542,-8.05479,6.102655
4.678,-0.798896,-8.059419,6.100806
4.797,-0.787594,-8.065985,6.096693
4.817,-0.776323,-8.072281,6.093057
4.837,-0.765419,-8.078386,6.089539
4.857,-0.754866,-8.084308,6.085885
4.877,-0.74424,-8.090221,6.082499
4.897,-0.733624,-8.095824,6.079008
4.917,-0.723621,-8.101627,6.075353
4.937,-0.713412,-8.107195,6.071809
4.957,-0.703278,-8.113026,6.068284
4.977,-0.694036,-8.118236,6.065128
4.997,-0.684924,-8.123165,6.061838
5.017,-0.676166,-8.127981,6.058675
5.037,-0.667673,-8.132657,6.055721
5.057,-0.659325,-8.137728,6.052689
5.077,-0.650894,-8.142655,6.049804
5.097,-0.642529,-8.147598,6.047062
5.117,-0.634517,-8.152435,6.044239
5.137,-0.626522,-8.156987,6.041283
5.157,-0.618973,-8.161681,6.038358
5.177,-0.611643,-8.1661,6.035411
5.197,-0.605016,-8.170132,6.032894
5.217,-0.598723,-8.173322,6.031031
5.237,-0.593302,-8.176154,6.029466
5.257,-0.587981,-8.179183,6.027778
5.277,-0.583024,-8.182092,6.026404
5.297,-0.578021,-8.183873,6.025439
5.317,-0.573006,-8.185755,6.024467
5.337,-0.567588,-8.188147,6.023416
5.357,-0.561842,-8.190407,6.022459
5.377,-0.556577,-8.19281,6.021228
5.397,-0.550892,-8.195138,6.019899
5.417,-0.545331,-8.198346,6.017995
5.437,-0.539891,-8.20194,6.015683
5.457,-0.534506,-8.205258,6.013538
5.477,-0.529084,-8.208438,6.011175
5.497,-0.523594,-8.211944,6.008308
5.517,-0.517947,-8.215743,6.00571
5.537,-0.512176,-8.219425,6.003042
5.557,-0.506373,-8.222968,5.99997
5.577,-0.50045,-8.226873,5.997455
5.597,-0.494905,-8.230439,5.994582
5.617,-0.489729,-8.233994,5.99193
5.637,-0.484397,-8.237488,5.989088
5.657,-0.479396,-8.240972,5.986035
5.677,-0.474548,-8.243891,5.982798
5.697,-0.469907,-8.246783,5.980718
5.717,-0.465662,-8.250698,5.978108
5.737,-0.462108,-8.254047,5.975932
5.757,-0.458624,-8.256573,5.97416
5.777,-0.454855,-8.25936,5.971663
5.797,-0.447705,-8.26358,5.965433
5.817,-0.440078,-8.267495,5.96209
5.837,-0.43412,-8.268857,5.960673
5.857,-0.430575,-8.271689,5.960107
5.877,-0.429972,-8.277845,5.95744
5.897,-0.432071,-8.282024,5.957026
5.917,-0.435372,-8.278788,5.963177
5.937,-0.439407,-8.26998,5.971445
5.957,-0.436206,-8.264302,5.976542
5.977,-0.42795,-8.266965,5.980725
5.997,-0.419928,-8.273216,5.982856
6.017,-0.412692,-8.271432,5.984774
6.037,-0.408417,-8.263465,5.991652
6.057,-0.40566,-8.261395,5.99851
6.077,-0.399537,-8.262196,5.998045
6.097,-0.392962,-8.261048,6.002445
6.117,-0.387387,-8.247104,6.013456
6.137,-0.382946,-8.227169,6.026991
6.157,-0.379911,-8.215622,6.032155
6.177,-0.377241,-8.219944,6.030156
6.197,-0.362982,-8.227144,6.042997
6.217,-0.358131,-8.202669,6.070458
6.237,-0.365826,-8.168143,6.093527
6.257,-0.352615,-8.193579,6.083851
6.277,-0.319486,-8.255534,6.053682
6.297,-0.32231,-8.277369,6.047015
6.317,-0.341184,-8.241833,6.078937
6.337,-0.329758,-8.211667,6.107978
6.357,-0.318882,-8.203919,6.125309
6.377,-0.330559,-8.191295,6.131644
6.397,-0.317346,-8.193837,6.142872
6.417,-0.309402,-8.190829,6.154395
6.437,-0.306048,-8.172076,6.161277
6.457,-0.301226,-8.157603,6.171562
6.477,-0.292071,-8.164369,6.182725
6.497,-0.287813,-8.168921,6.186667
6.517,-0.28112,-8.14586,6.204264
6.537,-0.286539,-8.10978,6.229945
6.557,-0.294437,-8.084777,6.253932
6.577,-0.29215,-8.066429,6.273059
6.597,-0.282907,-8.062207,6.283903
6.617,-0.280749,-8.083342,6.292099
6.637,-0.278899,-8.068175,6.300837
6.657,-0.282071,-8.049079,6.316909
6.677,-0.279227,-8.051267,6.324752
6.697,-0.274064,-8.054148,6.326124
6.717,-0.266176,-8.049641,6.334689
6.737,-0.267297,-8.049044,6.345706
6.757,-0.267689,-8.040087,6.356996
6.777,-0.269202,-8.022799,6.369586
