accel_time_list,accel_x_list,accel_y_list,accel_z_list
0.602,5.872977,-6.038177,-4.663905
0.622,5.831079,-6.066907,-4.568137
0.642,5.805127,-6.041359,-4.502611
0.662,5.788554,-6.021392,-4.486032
0.682,5.780528,-6.023795,-4.538496
0.702,5.779574,-6.031788,-4.618797
0.722,5.785058,-6.04058,-4.715611
0.742,5.795165,-6.042078,-4.803653
0.762,5.808093,-6.035781,-4.875047
0.782,5.818202,-6.032902,-4.927615
0.802,5.826257,-6.021822,-4.961714
0.824,5.838179,-6.004377,-4.983135
0.844,5.844942,-5.983303,-4.997819
0.864,5.845064,-5.970545,-5.017573
0.884,5.849662,-5.964631,-5.038607
0.904,5.860004,-5.957194,-5.060383
0.924,5.86857,-5.943099,-5.074659
0.944,5.87753,-5.924907,-5.087058
0.964,5.88517,-5.906556,-5.101644
0.984,5.885763,-5.895239,-5.114268
1.004,5.88089,-5.88952,-5.122265
1.024,5.874042,-5.881333,-5.127499
1.044,5.86547,-5.867069,-5.129366
1.064,5.860535,-5.849899,-5.127677
1.084,5.858905,-5.83603,-5.122375
1.104,5.85964,-5.82151,-5.116253
1.124,5.863013,-5.80138,-5.111138
1.144,5.867532,-5.779273,-5.10948
1.164,5.868308,-5.762391,-5.114407
1.184,5.866848,-5.7392,-5.127313
1.204,5.862351,-5.712811,-5.149147
1.224,5.856236,-5.696315,-5.181217
1.244,5.850413,-5.688623,-5.217352
1.264,5.845858,-5.680647,-5.254491
1.284,5.84184,-5.672699,-5.286664
1.304,5.835876,-5.670348,-5.31481
1.324,5.831747,-5.666758,-5.343611
1.344,5.827254,-5.661761,-5.371175
1.364,5.82387,-5.656247,-5.402599
1.384,5.821022,-5.652791,-5.43243
1.404,5.815561,-5.649076,-5.458332
1.424,5.810064,-5.641798,-5.480319
1.444,5.805274,-5.631075,-5.503223
1.464,5.799468,-5.620478,-5.526632
1.484,5.794188,-5.610451,-5.549181
1.504,5.790905,-5.599456,-5.571161
1.524,5.787394,-5.584151,-5.588459
1.544,5.784801,-5.564747,-5.606143
1.564,5.781406,-5.557721,-5.621109
1.584,5.773733,-5.555462,-5.62894
1.604,5.765759,-5.550948,-5.637098
1.624,5.75865,-5.547966,-5.648757
1.644,5.753305,-5.545496,-5.665222
1.664,5.748989,-5.536757,-5.682715
1.684,5.740859,-5.530985,-5.692925
1.704,5.735291,-5.523321,-5.708649
1.724,5.730179,-5.506864,-5.724734
1.744,5.725936,-5.491434,-5.741865
1.764,5.720763,-5.479923,-5.755161
1.784,5.714109,-5.474283,-5.765693
1.804,5.708413,-5.471153,-5.774482
1.824,5.702893,-5.464986,-5.784138
1.844,5.696488,-5.456851,-5.793422
1.864,5.691194,-5.450388,-5.800624
1.884,5.687479,-5.445365,-5.805027
1.904,5.683332,-5.440621,-5.808
1.924,5.678731,-5.435822,-5.811954
1.944,5.67559,-5.432,-5.817868
1.964,5.673213,-5.429272,-5.823888
1.984,5.670759,-5.42705,-5.830509
2.004,5.669248,-5.425276,-5.837133
2.024,5.66857,-5.421946,-5.843761
2.044,5.668088,-5.417863,-5.850036
2.064,5.668143,-5.416008,-5.85723
2.084,5.667544,-5.414745,-5.864261
2.104,5.667131,-5.41203,-5.870904
2.124,5.666595,-5.408864,-5.875995
2.144,5.666306,-5.404919,-5.878764
2.164,5.666381,-5.40234,-5.8806
2.184,5.666358,-5.401448,-5.881251
2.204,5.665164,-5.402012,-5.88091
2.224,5.663844,-5.400196,-5.879977
2.244,5.662248,-5.395247,-5.878721
2.264,5.660598,-5.38932,-5.877673
2.284,5.659593,-5.385594,-5.877061
2.304,5.658761,-5.382713,-5.877071
2.324,5.656591,-5.379869,-5.876585
2.344,5.654412,-5.377986,-5.877156
2.364,5.652687,-5.376058,-5.878389
2.384,5.651486,-5.37535,-5.880418
2.404,5.650624,-5.376001,-5.883435
2.424,5.650816,-5.377019,-5.886723
2.444,5.651585,-5.377082,-5.887963
2.464,5.653649,-5.37628,-5.888168
2.484,5.655996,-5.37635,-5.888939
2.504,5.657517,-5.37639,-5.892098
2.524,5.656959,-5.374707,-5.896953
2.544,5.654728,-5.370969,-5.901009
2.564,5.651629,-5.367114,-5.903215
2.584,5.649779,-5.363252,-5.904858
2.67,5.65063,-5.364109,-5.905189
2.69,5.651871,-5.363273,-5.906689
2.71,5.652659,-5.362323,-5.909042
2.73,5.653855,-5.361992,-5.910221
2.75,5.655348,-5.362364,-5.909364
2.77,5.657107,-5.363289,-5.908256
2.79,5.658784,-5.364877,-5.907092
2.81,5.66084,-5.366835,-5.906322
2.83,5.662722,-5.369501,-5.905697
2.85,5.664369,-5.371847,-5.90457
2.87,5.665737,-5.372783,-5.901753
2.89,5.666852,-5.372926,-5.898126
2.91,5.668243,-5.373234,-5.894889
2.93,5.669764,-5.373827,-5.891936
2.95,5.67158,-5.374748,-5.887993
2.97,5.674145,-5.375229,-5.882859
2.99,5.677761,-5.374221,-5.878123
3.01,5.681557,-5.372792,-5.873729
3.03,5.685674,-5.372359,-5.869187
3.05,5.689774,-5.372193,-5.864403
3.07,5.693688,-5.371144,-5.858948
3.09,5.699288,-5.368979,-5.853821
3.11,5.706532,-5.365736,-5.851068
3.13,5.714589,-5.361782,-5.850113
3.15,5.721536,-5.358801,-5.849217
3.17,5.725971,-5.357359,-5.846438
3.19,5.728159,-5.357344,-5.842106
3.21,5.729249,-5.357855,-5.837866
3.23,5.728076,-5.359966,-5.833093
3.25,5.724114,-5.364713,-5.828775
3.27,5.719713,-5.37116,-5.826464
3.29,5.714972,-5.378237,-5.826283
3.31,5.708484,-5.386201,-5.827229
3.33,5.700768,-5.39557,-5.82783
3.35,5.691333,-5.406976,-5.828066
3.37,5.683094,-5.422698,-5.828276
3.39,5.680875,-5.418605,-5.824749
3.41,5.67365,-5.426357,-5.823028
3.43,5.666737,-5.430345,-5.821948
3.45,5.660347,-5.43501,-5.822266
3.47,5.65522,-5.437642,-5.821911
3.49,5.651819,-5.437566,-5.8201
3.51,5.646728,-5.448241,-5.82185
3.53,5.639342,-5.466998,-5.821068
3.55,5.635118,-5.472614,-5.820343
3.57,5.633522,-5.475947,-5.818259
3.59,5.627034,-5.476996,-5.816005
3.61,5.622407,-5.484883,-5.814971
3.63,5.619837,-5.498029,-5.814857
3.65,5.615353,-5.508435,-5.815294
3.67,5.610244,-5.511601,-5.814339
3.69,5.605258,-5.511241,-5.813321
3.71,5.599651,-5.513972,-5.811284
3.73,5.595249,-5.521944,-5.809746
3.75,5.590748,-5.532924,-5.808751
3.77,5.584592,-5.543555,-5.807717
3.79,5.577061,-5.554271,-5.804204
3.81,5.568911,-5.564976,-5.797781
3.83,5.56022,-5.574928,-5.790129
3.85,5.553483,-5.584013,-5.78296
3.87,5.550549,-5.592577,-5.777564
3.89,5.547907,-5.601271,-5.774544
3.91,5.54522,-5.60995,-5.772655
3.93,5.547014,-5.617727,-5.771623
3.95,5.551015,-5.622411,-5.770314
3.97,5.55378,-5.624126,-5.766768
3.99,5.554889,-5.624125,-5.760695
4.01,5.554431,-5.622879,-5.754109
4.03,5.556108,-5.620878,-5.746798
4.05,5.559109,-5.620862,-5.741189
4.07,5.563134,-5.621611,-5.737239
4.09,5.568244,-5.623,-5.733545
4.11,5.572416,-5.623488,-5.728906
4.13,5.575135,-5.624642,-5.72551
4.15,5.577323,-5.625522,-5.72088
4.17,5.580687,-5.624477,-5.716104
4.19,5.585812,-5.623322,-5.712046
4.21,5.590216,-5.624143,-5.708316
4.23,5.593642,-5.626296,-5.703786
4.25,5.596843,-5.628739,-5.697002
4.27,5.60037,-5.630391,-5.689449
4.29,5.603934,-5.631428,-5.682929
4.31,5.607774,-5.632838,-5.676689
4.33,5.611432,-5.637634,-5.672187
4.35,5.616034,-5.644369,-5.669144
4.37,5.620854,-5.649432,-5.663568
4.39,5.6228,-5.651189,-5.655128
4.41,5.625062,-5.652521,-5.650938
4.43,5.630869,-5.657454,-5.647676
4.45,5.636738,-5.662076,-5.645691
4.47,5.641279,-5.666698,-5.644372
4.49,5.646613,-5.66991,-5.641295
4.51,5.651678,-5.672396,-5.637411
4.53,5.656094,-5.674306,-5.633398
4.55,5.659651,-5.67524,-5.629066
4.57,5.662958,-5.675804,-5.624514
4.59,5.666494,-5.676219,-5.620821
4.61,5.670834,-5.675457,-5.616663
4.63,5.675896,-5.674488,-5.61166
4.65,5.681434,-5.673671,-5.606636
4.735,5.686893,-5.67339,-5.600967
4.755,5.692273,-5.672632,-5.595763
4.775,5.697168,-5.671858,-5.591089
4.795,5.702422,-5.67035,-5.585935
4.815,5.707815,-5.668905,-5.580785
4.835,5.713369,-5.668168,-5.575351
4.855,5.719035,-5.667655,-5.570139
4.875,5.724477,-5.666332,-5.5662
4.895,5.72965,-5.664831,-5.561606
4.915,5.735249,-5.662914,-5.557011
4.935,5.740313,-5.661495,-5.552389
4.955,5.744657,-5.661143,-5.548101
4.975,5.749268,-5.661298,-5.54376
4.995,5.753378,-5.661452,-5.538122
5.015,5.756824,-5.661819,-5.531319
5.035,5.759566,-5.661872,-5.525398
5.055,5.761107,-5.661445,-5.520926
5.075,5.762034,-5.661166,-5.518461
5.095,5.763719,-5.66496,-5.516787
5.115,5.767708,-5.670632,-5.513142
5.135,5.770006,-5.672584,-5.506661
5.155,5.768187,-5.671092,-5.500268
5.175,5.768301,-5.674811,-5.499399
5.195,5.771167,-5.68036,-5.498849
5.215,5.771203,-5.683411,-5.496006
5.235,5.770665,-5.683655,-5.492234
5.255,5.76836,-5.691151,-5.492546
5.275,5.771608,-5.696177,-5.493261
5.295,5.772048,-5.697658,-5.490355
5.315,5.771261,-5.699866,-5.486041
5.335,5.771297,-5.704542,-5.483637
5.355,5.770854,-5.709674,-5.482072
5.375,5.769648,-5.712911,-5.480402
5.395,5.76788,-5.714105,-5.477792
5.415,5.765938,-5.7161,-5.475423
5.435,5.764327,-5.7198,-5.473509
5.455,5.761679,-5.724396,-5.472404
5.475,5.759895,-5.727294,-5.471095
5.495,5.757985,-5.730667,-5.469512
5.515,5.756645,-5.737285,-5.469357
5.535,5.754217,-5.743263,-5.469083
5.555,5.752556,-5.745996,-5.46831
5.575,5.751869,-5.748056,-5.467688
5.595,5.750829,-5.751125,-5.467264
5.615,5.749369,-5.755289,-5.466916
5.635,5.748666,-5.758955,-5.466667
5.655,5.747587,-5.762873,-5.466468
5.675,5.744388,-5.765554,-5.46541
5.695,5.74158,-5.76797,-5.463907
5.715,5.740045,-5.77036,-5.463592
5.735,5.739291,-5.771985,-5.463951
5.755,5.738737,-5.77254,-5.463971
5.775,5.73699,-5.773999,-5.462531
5.795,5.734496,-5.776545,-5.460578
5.815,5.733534,-5.778036,-5.458644
5.835,5.73275,-5.777477,-5.456491
5.855,5.731614,-5.777594,-5.454479
5.875,5.731232,-5.778883,-5.454235
5.895,5.731165,-5.780997,-5.451766
5.915,5.730979,-5.783019,-5.449466
5.935,5.730317,-5.785378,-5.447859
5.955,5.7299,-5.787739,-5.446915
5.975,5.729918,-5.788806,-5.446507
5.995,5.729409,-5.789433,-5.44627
6.015,5.727972,-5.792135,-5.446371
6.035,5.728225,-5.797876,-5.446375
6.055,5.730367,-5.800878,-5.443459
6.075,5.729518,-5.802916,-5.438081
6.095,5.729157,-5.80443,-5.437929
6.115,5.729805,-5.806217,-5.437755
6.135,5.729489,-5.807339,-5.436073
6.155,5.72944,-5.80687,-5.434337
6.175,5.730037,-5.804132,-5.433073
6.195,5.731586,-5.800463,-5.433928
6.215,5.732641,-5.800063,-5.434991
6.235,5.731555,-5.804839,-5.434798
6.255,5.729114,-5.807986,-5.434367
6.275,5.729715,-5.809498,-5.433869
6.295,5.728418,-5.80908,-5.433568
6.315,5.726727,-5.808593,-5.433652
6.335,5.726562,-5.808184,-5.433879
6.355,5.725584,-5.807922,-5.434487
6.375,5.722413,-5.809195,-5.436502
6.395,5.719992,-5.817471,-5.438999
6.415,5.722144,-5.806605,-5.437641
6.435,5.718457,-5.810812,-5.439648
6.455,5.718422,-5.812607,-5.442449
6.475,5.720183,-5.810218,-5.443929
6.495,5.721831,-5.809769,-5.444293
6.515,5.722768,-5.810472,-5.443408
6.535,5.722809,-5.810092,-5.442101
6.555,5.723497,-5.809787,-5.441167
6.575,5.724944,-5.811018,-5.441152
6.595,5.725514,-5.813481,-5.442764
6.615,5.724739,-5.815177,-5.44472
6.635,5.724497,-5.815563,-5.444263
6.655,5.724737,-5.817454,-5.441846
6.675,5.724975,-5.818752,-5.439573
6.695,5.72588,-5.819582,-5.437515
6.715,5.726489,-5.820762,-5.4361
