accel_time_list,accel_x_list,accel_y_list,accel_z_list
0.372,-5.245696,-6.275203,2.401384
0.392,-5.140351,-6.326678,2.303222
0.412,-5.243448,-6.594615,2.105839
0.432,-5.4344,-6.837216,1.920126
0.452,-5.545136,-7.022246,1.717375
0.472,-5.704658,-7.048267,1.615328
0.492,-5.869623,-7.033336,1.549474
0.512,-6.008087,-6.978382,1.539632
0.532,-6.118041,-6.890129,1.548027
0.552,-6.220303,-6.79185,1.573011
0.572,-6.323423,-6.69696,1.598967
0.592,-6.415405,-6.601826,1.613044
0.612,-6.500938,-6.50731,1.609149
0.632,-6.584346,-6.419818,1.589085
0.652,-6.666308,-6.342711,1.550358
0.672,-6.74783,-6.272051,1.496136
0.692,-6.834602,-6.20248,1.431915
0.712,-6.924526,-6.136926,1.365449
0.732,-7.015635,-6.079703,1.295641
0.752,-7.107376,-6.027928,1.22524
0.772,-7.19464,-5.983992,1.158394
0.792,-7.275276,-5.945914,1.095122
0.812,-7.351381,-5.916881,1.035674
0.832,-7.422674,-5.899781,0.977966
0.852,-7.485977,-5.892214,0.921141
0.872,-7.541121,-5.89007,0.866518
0.892,-7.58987,-5.890937,0.814464
0.912,-7.636027,-5.892206,0.769988
0.932,-7.684316,-5.886956,0.740379
0.952,-7.733627,-5.871257,0.725762
0.972,-7.78363,-5.853895,0.729566
0.992,-7.82472,-5.836817,0.743122
1.012,-7.885527,-5.80867,0.757283
1.032,-7.986282,-5.77316,0.782065
1.052,-8.053324,-5.728233,0.810194
1.072,-8.028019,-5.672944,0.837915
1.092,-7.959663,-5.619895,0.87411
1.112,-7.901015,-5.586313,0.916598
1.132,-7.856377,-5.578688,0.962699
1.152,-7.816523,-5.588809,1.012423
1.172,-7.795712,-5.59866,1.066719
1.192,-7.804085,-5.594912,1.12212
1.212,-7.825321,-5.570908,1.174954
1.232,-7.834178,-5.523861,1.229898
1.252,-7.819579,-5.462256,1.291618
1.272,-7.790741,-5.397727,1.360228
1.292,-7.761813,-5.340483,1.434551
1.312,-7.73983,-5.299246,1.504528
1.332,-7.7268,-5.275113,1.562115
1.352,-7.719703,-5.260508,1.607396
1.372,-7.717399,-5.2513,1.646616
1.392,-7.716473,-5.245748,1.684463
1.412,-7.708539,-5.241775,1.721778
1.432,-7.687609,-5.237982,1.758851
1.452,-7.658639,-5.234083,1.793367
1.472,-7.631502,-5.231755,1.826302
1.492,-7.615945,-5.234016,1.859761
1.512,-7.611852,-5.2382,1.89696
1.532,-7.611409,-5.237902,1.935508
1.552,-7.609573,-5.229668,1.972753
1.572,-7.603154,-5.210888,2.008561
1.592,-7.591553,-5.185681,2.044449
1.612,-7.573333,-5.16394,2.078447
1.632,-7.550847,-5.148959,2.10584
1.652,-7.527707,-5.141644,2.128556
1.672,-7.505031,-5.142266,2.145775
1.692,-7.483757,-5.146726,2.156419
1.712,-7.478137,-5.150136,2.162021
1.732,-7.507663,-5.156855,2.178019
1.752,-7.558176,-5.172492,2.20789
1.772,-7.585799,-5.188436,2.23507
1.792,-7.594492,-5.192729,2.25097
1.812,-7.617031,-5.182009,2.261179
1.832,-7.664108,-5.165503,2.278164
1.852,-7.710982,-5.149154,2.305556
1.872,-7.734566,-5.127487,2.337799
1.892,-7.731919,-5.099191,2.366426
1.912,-7.708397,-5.073594,2.389936
1.932,-7.670443,-5.058259,2.406513
1.952,-7.623444,-5.058472,2.423093
1.972,-7.574707,-5.081065,2.443309
1.992,-7.530353,-5.117609,2.456924
2.012,-7.494939,-5.157966,2.459638
2.032,-7.472339,-5.194457,2.460257
2.052,-7.460509,-5.226435,2.463747
2.072,-7.458287,-5.254476,2.470967
2.092,-7.461573,-5.274034,2.481581
2.112,-7.4654,-5.282225,2.494609
2.132,-7.46716,-5.285497,2.507486
2.152,-7.466573,-5.292061,2.519925
2.172,-7.46272,-5.303816,2.532273
2.192,-7.45362,-5.3152,2.539209
2.212,-7.441377,-5.323967,2.54412
2.232,-7.424878,-5.331254,2.550875
2.252,-7.405013,-5.338384,2.561768
2.272,-7.382661,-5.343399,2.579479
2.292,-7.355583,-5.343479,2.602599
2.312,-7.32445,-5.339192,2.630203
2.332,-7.285804,-5.331493,2.662309
2.352,-7.241848,-5.324934,2.705455
2.674,-7.289718,-5.243553,2.606181
2.694,-7.337289,-5.177135,2.477956
2.714,-7.358858,-5.162807,2.351159
2.734,-7.304693,-5.161465,2.237504
2.754,-7.227334,-5.123029,2.123359
2.774,-7.183017,-4.93161,1.91804
2.794,-7.183583,-4.449089,1.496958
2.814,-7.045448,-3.942082,1.024436
2.834,-7.024515,-4.349612,0.937147
2.854,-7.237998,-5.247235,1.210811
2.874,-7.281356,-5.956562,1.357295
2.897,-7.537205,-6.016689,0.44301
2.917,-6.999375,-10.40689,4.819085
2.937,-6.519938,-16.26365,-0.531263
2.957,-5.777512,-10.39964,-6.034805
2.977,-4.179037,1.797417,-6.369759
2.997,-3.02395,5.157873,-4.309066
3.017,-3.394725,0.454512,3.808273
3.037,-3.952815,-1.928904,14.59284
3.057,-3.694477,1.057072,13.36397
3.077,-3.072668,-0.29568,13.41122
3.097,-1.321335,-3.252082,12.43658
3.117,-0.675787,-4.056845,11.6668
3.137,-1.649098,-2.694727,11.8152
3.157,-2.394464,-1.284949,11.59495
3.177,-2.269321,-1.361588,10.81022
3.197,-1.929428,-2.119307,9.931274
3.217,-1.560515,-2.702344,9.399833
3.237,-1.199009,-2.778505,9.24299
3.257,-1.054415,-3.042922,9.114758
3.277,-0.755136,-3.68325,8.843687
3.297,-0.329283,-4.186077,8.599845
3.317,0.085253,-4.239757,8.471862
3.337,0.602766,-4.204829,8.42545
3.357,1.119138,-4.358127,8.347081
3.377,1.455764,-4.471549,8.246922
3.397,1.620451,-4.507732,8.175436
3.417,1.716051,-4.564659,8.142245
3.437,1.811845,-4.666796,8.141992
3.457,1.932729,-4.777033,8.177438
3.477,2.008765,-4.843305,8.265011
3.497,2.026011,-4.829998,8.377247
3.517,2.040879,-4.804399,8.454313
3.537,2.084921,-4.857418,8.471689
3.557,2.142079,-4.928464,8.478001
3.577,2.188476,-4.982595,8.479884
3.597,2.233452,-5.037663,8.439265
3.617,2.262796,-5.151681,8.36998
3.637,2.265061,-5.327959,8.295833
3.657,2.257909,-5.490335,8.230135
3.677,2.255707,-5.599793,8.185789
3.697,2.238151,-5.664904,8.174282
3.717,2.213289,-5.713164,8.18772
3.737,2.20204,-5.744439,8.207456
3.757,2.20298,-5.754113,8.228806
3.777,2.200468,-5.755251,8.254965
3.797,2.205227,-5.721335,8.285893
3.817,2.210602,-5.655426,8.316231
3.837,2.199764,-5.595384,8.342187
3.857,2.184094,-5.56769,8.360513
3.877,2.158982,-5.528841,8.392121
3.897,2.124606,-5.467278,8.449615
3.917,2.07967,-5.419812,8.520224
3.937,2.030684,-5.385875,8.601169
3.957,1.98283,-5.337079,8.69699
3.977,1.942544,-5.276532,8.788584
3.997,1.908542,-5.195053,8.86125
4.017,1.881847,-5.116186,8.908164
4.037,1.862311,-5.051883,8.924718
4.057,1.839563,-5.011934,8.918613
4.077,1.816672,-4.997033,8.91375
4.097,1.800444,-4.990662,8.925524
4.117,1.797512,-4.978979,8.955581
4.137,1.802167,-4.959272,8.996545
4.157,1.808126,-4.936487,9.037017
4.177,1.810641,-4.912939,9.069318
4.197,1.808961,-4.897249,9.085801
4.217,1.802565,-4.886111,9.095225
4.237,1.792762,-4.873507,9.106019
4.257,1.782974,-4.855301,9.123988
4.277,1.775247,-4.832589,9.14889
4.297,1.770559,-4.806701,9.174407
4.317,1.76793,-4.78561,9.195955
4.337,1.7663,-4.769121,9.214867
4.357,1.766173,-4.746233,9.235487
4.377,1.765504,-4.724407,9.256397
4.397,1.761861,-4.710991,9.273662
4.417,1.755662,-4.703629,9.28538
4.437,1.74932,-4.698562,9.294159
4.457,1.74254,-4.687695,9.304836
4.477,1.735173,-4.670024,9.319223
4.497,1.729445,-4.651109,9.334625
4.517,1.724878,-4.634722,9.348682
4.537,1.720252,-4.621159,9.362993
4.557,1.715209,-4.605057,9.378942
4.577,1.712086,-4.58945,9.39423
4.597,1.709601,-4.575015,9.407886
4.617,1.706542,-4.561021,9.420592
4.637,1.703159,-4.547135,9.433138
4.657,1.699874,-4.535721,9.443428
4.79,1.697196,-4.525541,9.453492
4.81,1.694594,-4.514367,9.463937
4.83,1.691316,-4.504776,9.473526
4.85,1.687316,-4.49607,9.4825
4.87,1.683735,-4.487375,9.491789
4.89,1.680765,-4.478689,9.500813
4.91,1.678724,-4.469887,9.508493
4.93,1.676165,-4.461095,9.516511
4.95,1.673209,-4.452791,9.524265
4.97,1.670262,-4.445117,9.532388
4.99,1.666577,-4.436561,9.540905
5.01,1.663335,-4.428043,9.549958
5.03,1.659948,-4.419829,9.559117
5.05,1.656861,-4.410242,9.568419
5.07,1.654158,-4.399957,9.578006
5.09,1.651641,-4.389478,9.586042
5.11,1.649609,-4.381609,9.592283
5.13,1.647114,-4.377189,9.597682
5.15,1.644467,-4.373069,9.604465
5.17,1.64238,-4.368383,9.611782
5.19,1.640574,-4.363363,9.618646
5.21,1.638232,-4.357323,9.624553
5.23,1.635913,-4.350535,9.629634
5.25,1.63387,-4.344455,9.634151
5.27,1.631452,-4.339129,9.639292
5.29,1.629057,-4.333497,9.645498
5.31,1.626959,-4.328196,9.651628
5.33,1.625122,-4.323644,9.65681
5.35,1.623324,-4.319524,9.661165
5.37,1.621003,-4.315117,9.666087
5.39,1.618887,-4.310495,9.670992
5.41,1.616891,-4.305159,9.676412
5.43,1.615169,-4.299909,9.681003
5.45,1.613559,-4.295237,9.685493
5.47,1.611827,-4.290883,9.689915
5.49,1.61018,-4.286473,9.694302
5.51,1.608389,-4.282429,9.698833
5.53,1.606731,-4.27877,9.70312
5.55,1.604859,-4.274926,9.707231
5.57,1.603461,-4.271076,9.711022
5.59,1.60192,-4.26719,9.714735
5.61,1.600407,-4.262753,9.718542
5.63,1.598481,-4.259062,9.722271
5.65,1.596694,-4.255163,9.726261
5.67,1.595523,-4.251679,9.729338
5.69,1.593933,-4.249127,9.732599
5.71,1.592455,-4.245141,9.736644
5.73,1.591063,-4.240741,9.740773
5.75,1.589709,-4.237264,9.743694
5.77,1.588321,-4.234553,9.746184
5.79,1.586707,-4.232269,9.748837
5.81,1.585373,-4.230216,9.751987
5.83,1.583956,-4.227393,9.755183
5.85,1.582865,-4.22413,9.758604
5.87,1.581665,-4.221313,9.761527
5.89,1.580333,-4.217988,9.764446
5.91,1.578871,-4.214469,9.767438
5.93,1.577161,-4.210962,9.770401
5.95,1.575515,-4.208091,9.773311
5.97,1.574197,-4.205471,9.775725
5.99,1.572844,-4.203537,9.777949
6.01,1.571313,-4.202031,9.780231
6.03,1.569822,-4.200262,9.782928
6.05,1.568584,-4.198093,9.785344
6.07,1.567479,-4.195305,9.787425
6.09,1.566553,-4.191803,9.789988
6.11,1.565444,-4.189077,9.792429
6.13,1.564011,-4.18705,9.794798
6.15,1.562616,-4.184708,9.797526
6.17,1.561403,-4.182916,9.799988
6.19,1.560322,-4.181453,9.802114
6.21,1.559108,-4.179142,9.804553
6.23,1.558074,-4.177047,9.806993
6.25,1.556858,-4.175092,9.809407
6.27,1.555487,-4.172869,9.811606
6.29,1.554178,-4.170693,9.813687
6.31,1.552905,-4.168993,9.815604
6.33,1.551909,-4.166855,9.817909
6.35,1.551114,-4.164116,9.820358
6.37,1.550399,-4.161477,9.822927
6.39,1.549237,-4.158313,9.825852
6.41,1.54799,-4.155635,9.827767
6.43,1.546851,-4.154302,9.828897
6.45,1.545652,-4.15334,9.830231
6.47,1.544537,-4.152293,9.832006
6.49,1.54372,-4.150418,9.834363
6.51,1.542959,-4.14837,9.837103
6.53,1.542062,-4.146343,9.838929
6.55,1.540911,-4.143354,9.841168
6.57,1.539652,-4.140372,9.843457
6.59,1.538573,-4.138257,9.845627
6.61,1.537313,-4.136786,9.84744
6.63,1.536616,-4.13521,9.849379
6.65,1.536022,-4.133697,9.851345
6.67,1.535243,-4.131673,9.853053
6.69,1.534208,-4.129478,9.855223
6.71,1.533255,-4.127471,9.857251
6.73,1.532168,-4.125773,9.858948
6.75,1.531067,-4.123708,9.860843
6.77,1.53029,-4.121377,9.863102
6.854,1.529184,-4.119165,9.865123
6.874,1.528282,-4.117023,9.866669
6.894,1.52746,-4.115261,9.868008
6.914,1.526574,-4.113421,9.870028
6.934,1.525841,-4.111552,9.872243
6.954,1.52514,-4.109893,9.874245
6.974,1.524325,-4.108825,9.875461
6.994,1.523519,-4.107816,9.876975
7.014,1.522601,-4.106361,9.878881
7.034,1.521836,-4.104084,9.881439
7.054,1.520959,-4.10238,9.883085
7.074,1.520115,-4.101483,9.884356
7.094,1.519542,-4.099613,9.886092
7.114,1.519023,-4.0969,9.888338
7.134,1.518126,-4.095196,9.890107
7.154,1.517047,-4.093892,9.891092
7.174,1.515859,-4.092865,9.892187
7.194,1.515161,-4.091703,9.893606
7.214,1.514447,-4.089716,9.895418
7.234,1.513931,-4.087796,9.897547
7.254,1.51318,-4.086375,9.899415
7.274,1.512414,-4.085231,9.900906
7.294,1.511631,-4.083979,9.902022
7.314,1.510497,-4.083002,9.903439
7.334,1.509733,-4.081341,9.904721
7.354,1.509169,-4.079793,9.905848
7.374,1.508586,-4.07838,9.907226
7.394,1.507674,-4.076765,9.909237
7.414,1.506794,-4.07531,9.911203
7.434,1.505972,-4.074133,9.912815
7.454,1.504823,-4.073734,9.913908
7.474,1.503014,-4.074321,9.915493
7.494,1.500458,-4.075237,9.918403
7.514,1.498143,-4.074851,9.921547
7.534,1.498245,-4.071548,9.922074
7.554,1.498681,-4.067344,9.920058
7.574,1.497796,-4.062943,9.916363
7.594,1.498452,-4.056646,9.913255
7.614,1.499245,-4.049502,9.913577
7.634,1.498594,-4.041162,9.916171
7.654,1.496896,-4.033216,9.919721
7.674,1.496316,-4.028772,9.92211
7.694,1.497681,-4.028132,9.92299
7.714,1.498291,-4.028074,9.923047
7.734,1.497984,-4.028471,9.924469
7.754,1.496508,-4.027738,9.928391
7.774,1.495405,-4.024523,9.932177
7.794,1.49405,-4.023064,9.935614
7.814,1.491799,-4.022624,9.938682
7.834,1.490336,-4.02195,9.94136
7.854,1.487931,-4.019583,9.946453
7.874,1.484256,-4.013768,9.953938
7.894,1.480259,-4.005929,9.9624
7.914,1.475656,-4.000465,9.968719
7.934,1.469854,-3.998481,9.971815
7.954,1.462745,-3.998694,9.971935
7.974,1.454319,-4.000654,9.970402
7.994,1.447844,-4.004988,9.969028
8.014,1.442751,-4.014641,9.968242
8.034,1.434237,-4.029466,9.969379
8.054,1.430573,-4.040742,9.974121
8.074,1.433457,-4.043694,9.982957
8.094,1.43751,-4.039577,9.989884
8.114,1.438985,-4.035956,9.991069
8.134,1.441833,-4.034885,9.98786
8.154,1.446784,-4.03361,9.981427
8.174,1.449889,-4.032275,9.975274
8.194,1.451455,-4.030283,9.970068
8.214,1.457004,-4.025846,9.964507
8.234,1.462378,-4.02502,9.957015
8.254,1.461665,-4.025351,9.953859
8.274,1.463712,-4.033197,9.949179
8.294,1.466289,-4.045274,9.94184
8.314,1.467571,-4.056297,9.936131
8.334,1.466854,-4.063618,9.933639
8.354,1.462217,-4.082597,9.927221
8.374,1.468137,-4.091906,9.92228
8.394,1.465522,-4.089462,9.921699
8.414,1.462646,-4.09681,9.919566
8.434,1.464516,-4.110717,9.912571
8.454,1.463254,-4.122139,9.906651
8.474,1.463298,-4.137014,9.902061
8.494,1.465688,-4.151476,9.898736
8.514,1.46475,-4.158803,9.89784
8.534,1.468681,-4.166608,9.895443
8.554,1.473747,-4.173496,9.891299
8.574,1.480318,-4.179334,9.88655
8.594,1.48893,-4.184803,9.880268
8.614,1.489866,-4.191365,9.874887
8.634,1.487058,-4.203201,9.869177
8.654,1.491988,-4.205534,9.863045
8.674,1.501177,-4.215026,9.854939
8.694,1.506804,-4.223489,9.848423
8.714,1.512086,-4.232921,9.842355
8.734,1.514946,-4.245802,9.836491
8.754,1.518351,-4.258674,9.830973
8.774,1.523207,-4.271274,9.824145
8.794,1.528996,-4.282909,9.817219
8.814,1.534967,-4.299002,9.810362
8.834,1.537047,-4.309474,9.803477
