gyro_time_list,gyro_x_list,gyro_y_list,gyro_z_list
1.52,-0.150551,0.085668,0.224894
1.54,-0.150285,0.090397,0.227159
1.56,-0.156724,0.094462,0.231512
1.58,-0.168776,0.09786,0.234922
1.6,-0.183646,0.100966,0.236781
1.62,-0.195487,0.104282,0.236487
1.64,-0.203493,0.106955,0.234259
1.66,-0.213868,0.108077,0.23027
1.68,-0.228891,0.107599,0.224881
1.7,-0.246385,0.106697,0.218469
1.72,-0.264224,0.104867,0.211039
1.74,-0.278556,0.101973,0.203542
1.76,-0.287081,0.098577,0.196343
1.78,-0.291795,0.093801,0.189154
1.8,-0.298448,0.085744,0.180721
1.82,-0.314966,0.073981,0.169922
1.84,-0.344007,0.061118,0.15685
1.86,-0.378049,0.048879,0.142508
1.88,-0.408031,0.037251,0.127312
1.9,-0.425697,0.026103,0.113113
1.92,-0.426223,0.01534,0.100166
1.94,-0.413846,0.004796,0.087079
1.96,-0.396059,-0.006699,0.073138
1.98,-0.378413,-0.019843,0.05727
2,-0.364189,-0.034734,0.038735
2.02,-0.354462,-0.051165,0.017132
2.04,-0.350185,-0.068143,-0.00695
2.06,-0.350724,-0.084793,-0.032007
2.08,-0.35253,-0.100879,-0.055953
2.1,-0.352383,-0.117269,-0.078059
2.12,-0.349184,-0.134285,-0.098111
2.14,-0.343166,-0.151359,-0.116179
2.16,-0.334578,-0.168065,-0.133166
2.18,-0.32393,-0.18463,-0.149927
2.2,-0.31127,-0.201195,-0.166722
2.22,-0.296755,-0.218013,-0.183471
2.24,-0.281535,-0.234934,-0.200379
2.26,-0.267009,-0.250837,-0.216776
2.28,-0.253037,-0.26529,-0.231992
2.3,-0.239427,-0.278981,-0.24572
2.32,-0.226711,-0.29147,-0.257882
2.34,-0.215001,-0.302192,-0.268945
2.36,-0.202703,-0.312063,-0.279634
2.38,-0.187644,-0.321604,-0.291046
2.4,-0.169045,-0.330673,-0.303354
2.42,-0.14832,-0.338997,-0.315795
2.44,-0.127993,-0.346856,-0.327342
2.46,-0.109324,-0.355091,-0.337858
2.48,-0.092819,-0.364161,-0.348427
2.5,-0.079335,-0.372805,-0.359592
2.52,-0.069423,-0.380384,-0.371941
2.54,-0.060658,-0.387737,-0.385724
2.56,-0.050575,-0.395594,-0.400612
2.58,-0.038895,-0.404495,-0.416283
2.6,-0.02551,-0.415,-0.433676
2.62,-0.009647,-0.427483,-0.453321
2.64,0.009238,-0.442294,-0.474333
2.66,0.02805,-0.459156,-0.4972
2.68,0.044784,-0.477796,-0.520707
2.7,0.053266,-0.495166,-0.538559
2.72,0.03823,-0.50127,-0.537599
2.74,-0.004013,-0.498051,-0.509791
2.76,-0.06753,-0.496134,-0.468843
2.78,-0.128557,-0.496223,-0.438363
2.8,-0.166653,-0.4897,-0.415279
2.82,-0.169708,-0.470146,-0.389856
2.84,-0.141596,-0.44699,-0.374893
2.86,-0.097293,-0.430687,-0.372449
2.88,-0.048068,-0.419339,-0.372669
2.9,-0.003087,-0.412317,-0.370616
2.92,0.033937,-0.410366,-0.374125
2.94,0.061845,-0.410321,-0.38373
2.96,0.076075,-0.408218,-0.394614
2.98,0.074879,-0.403293,-0.403727
3,0.07042,-0.395143,-0.407252
3.02,0.077832,-0.385068,-0.403934
3.04,0.090926,-0.375454,-0.399023
3.06,0.098279,-0.366994,-0.393989
3.08,0.098647,-0.357717,-0.391545
3.1,0.108966,-0.348329,-0.388221
3.12,0.141201,-0.343422,-0.384863
3.14,0.191859,-0.342453,-0.380869
3.16,0.250792,-0.343885,-0.373483
3.18,0.308953,-0.348862,-0.361254
3.2,0.360991,-0.359833,-0.349161
3.22,0.399808,-0.375015,-0.338292
3.24,0.423409,-0.389969,-0.325802
3.26,0.435805,-0.401347,-0.315686
3.28,0.44731,-0.409659,-0.313455
3.3,0.411096,-0.397454,-0.321028
3.32,0.270914,-0.470838,-0.336303
3.34,0.114591,-0.55198,-0.414355
3.36,0.017679,-0.471983,-0.497199
3.38,-0.157889,-0.410436,-0.448984
3.4,-0.318895,-0.402193,-0.454223
3.42,-0.203488,-0.396636,-0.437574
3.44,-0.03525,-0.390671,-0.445719
3.46,0.058807,-0.372439,-0.447158
3.48,0.027448,-0.351191,-0.438671
3.5,-0.032875,-0.324967,-0.418176
4.706,-0.033234,-0.316184,-0.408635
4.726,-0.03359,-0.30767,-0.399472
4.746,-0.034539,-0.299446,-0.390598
4.766,-0.0363,-0.291499,-0.382068
4.786,-0.038212,-0.28397,-0.373871
4.806,-0.03905,-0.276825,-0.366068
4.826,-0.039158,-0.269838,-0.358444
4.846,-0.040078,-0.263004,-0.350992
4.866,-0.041654,-0.256421,-0.343791
4.886,-0.042708,-0.250134,-0.33678
4.906,-0.042588,-0.244239,-0.33011
4.926,-0.041544,-0.23847,-0.323455
4.946,-0.040866,-0.232752,-0.316991
4.966,-0.041125,-0.227147,-0.310692
4.986,-0.04237,-0.221792,-0.304683
5.006,-0.043934,-0.216651,-0.29891
5.026,-0.045052,-0.211537,-0.293181
5.046,-0.045846,-0.2067,-0.287656
5.066,-0.04674,-0.202063,-0.282372
5.086,-0.047683,-0.197694,-0.277356
5.106,-0.048413,-0.193456,-0.272468
5.126,-0.048726,-0.189432,-0.267676
5.146,-0.048394,-0.18553,-0.263001
5.166,-0.047551,-0.181678,-0.258448
5.186,-0.046962,-0.177951,-0.253997
5.206,-0.046637,-0.174387,-0.249678
5.226,-0.046241,-0.170945,-0.245499
5.246,-0.046137,-0.167549,-0.241514
5.266,-0.046221,-0.164182,-0.237614
5.286,-0.046224,-0.160849,-0.233767
5.306,-0.046259,-0.157641,-0.230032
5.326,-0.046509,-0.154583,-0.226407
5.346,-0.046845,-0.151631,-0.222896
5.366,-0.04678,-0.148762,-0.219538
5.386,-0.04646,-0.145895,-0.216189
5.406,-0.046357,-0.143144,-0.212893
5.426,-0.046459,-0.140499,-0.209709
5.446,-0.046505,-0.137933,-0.206658
5.466,-0.046285,-0.135413,-0.203639
5.486,-0.04596,-0.13298,-0.200717
5.506,-0.045682,-0.130579,-0.197825
5.526,-0.045569,-0.128258,-0.194993
5.546,-0.045591,-0.126081,-0.19229
5.566,-0.045789,-0.123859,-0.18961
5.586,-0.045935,-0.121574,-0.186979
5.606,-0.046049,-0.119358,-0.184393
5.626,-0.046208,-0.117376,-0.181971
5.646,-0.046139,-0.115501,-0.179661
5.666,-0.045899,-0.113601,-0.17734
5.686,-0.045599,-0.111716,-0.175017
5.706,-0.045413,-0.109846,-0.172733
5.726,-0.045403,-0.108066,-0.170551
5.746,-0.045472,-0.106283,-0.168429
5.766,-0.045401,-0.104549,-0.166356
5.786,-0.045133,-0.102922,-0.164343
5.806,-0.044944,-0.101294,-0.162354
5.826,-0.045057,-0.099647,-0.160401
5.846,-0.045165,-0.098074,-0.158493
5.866,-0.045062,-0.096522,-0.156605
5.886,-0.044976,-0.095031,-0.154758
5.906,-0.044892,-0.093588,-0.152938
5.926,-0.044768,-0.092161,-0.151186
5.946,-0.044672,-0.090722,-0.149452
5.966,-0.044715,-0.089328,-0.147795
5.986,-0.044671,-0.088019,-0.146185
6.006,-0.044555,-0.086711,-0.144596
6.026,-0.044649,-0.085392,-0.143022
6.046,-0.044869,-0.084095,-0.141483
6.066,-0.04486,-0.082855,-0.139975
6.086,-0.044504,-0.081679,-0.138526
6.106,-0.044214,-0.080481,-0.137045
6.126,-0.044142,-0.079316,-0.135596
6.146,-0.044121,-0.078144,-0.134184
6.166,-0.044049,-0.076994,-0.132773
6.186,-0.044103,-0.075917,-0.131474
6.206,-0.043973,-0.074877,-0.130237
6.226,-0.043608,-0.07385,-0.129014
6.246,-0.043413,-0.07285,-0.127788
6.266,-0.043475,-0.071836,-0.126587
6.286,-0.043764,-0.070693,-0.125366
6.306,-0.044023,-0.069609,-0.124165
6.326,-0.044007,-0.068711,-0.122972
6.346,-0.04435,-0.067942,-0.121724
6.366,-0.044846,-0.067312,-0.120777
6.386,-0.044649,-0.066839,-0.119997
6.406,-0.044435,-0.0665,-0.119105
6.426,-0.045013,-0.066231,-0.118023
6.446,-0.044659,-0.06601,-0.117332
6.466,-0.043028,-0.065959,-0.116777
6.486,-0.041599,-0.066337,-0.116037
6.506,-0.040371,-0.067118,-0.115084
6.526,-0.037896,-0.067669,-0.114176
6.546,-0.03412,-0.067987,-0.113294
6.566,-0.031098,-0.068378,-0.112634
6.586,-0.028818,-0.068666,-0.112007
6.606,-0.027021,-0.068789,-0.111493
6.626,-0.025284,-0.069018,-0.111054
6.646,-0.023764,-0.069504,-0.110925
6.666,-0.022838,-0.069658,-0.110727
6.686,-0.022828,-0.069592,-0.110394
6.829,-0.024131,-0.068175,-0.109197
6.849,-0.026064,-0.066622,-0.107797
6.869,-0.026352,-0.065139,-0.106582
6.889,-0.024861,-0.063944,-0.105684
6.909,-0.022966,-0.063145,-0.104903
6.929,-0.022215,-0.062208,-0.103773
6.949,-0.022365,-0.061248,-0.10277
6.969,-0.021209,-0.060405,-0.10198
6.989,-0.019266,-0.059774,-0.101235
7.009,-0.01868,-0.059032,-0.100494
7.029,-0.019784,-0.057869,-0.099704
7.049,-0.020218,-0.056777,-0.099028
7.069,-0.019543,-0.055955,-0.098491
7.089,-0.019222,-0.055254,-0.097972
7.109,-0.020077,-0.054534,-0.097656
7.129,-0.021134,-0.053737,-0.097318
7.149,-0.022883,-0.053269,-0.097029
7.169,-0.02434,-0.052699,-0.096729
7.189,-0.024683,-0.051783,-0.09646
7.209,-0.024927,-0.050957,-0.096296
7.229,-0.026103,-0.049844,-0.095983
7.249,-0.027754,-0.048534,-0.095608
7.269,-0.028107,-0.047348,-0.095707
7.289,-0.028199,-0.046203,-0.095965
7.309,-0.029695,-0.045096,-0.096604
7.329,-0.032593,-0.043774,-0.097452
7.349,-0.034552,-0.042857,-0.097957
7.369,-0.035607,-0.042433,-0.097621
7.389,-0.035702,-0.042349,-0.097109
7.409,-0.036249,-0.042201,-0.096556
7.429,-0.037711,-0.042136,-0.096266
7.449,-0.039615,-0.041824,-0.095952
7.469,-0.040911,-0.041218,-0.095639
7.489,-0.041423,-0.04075,-0.095755
7.509,-0.043337,-0.040665,-0.095903
7.529,-0.046231,-0.040492,-0.095867
7.549,-0.048601,-0.040066,-0.095755
7.569,-0.049564,-0.03951,-0.095563
7.589,-0.049763,-0.039073,-0.095408
7.609,-0.049979,-0.038719,-0.095352
7.629,-0.050728,-0.038317,-0.095278
7.649,-0.051285,-0.037803,-0.095182
7.669,-0.051173,-0.03721,-0.09485
7.689,-0.050306,-0.036581,-0.094348
7.709,-0.049752,-0.036028,-0.09364
7.729,-0.049549,-0.035478,-0.092817
7.749,-0.05011,-0.035304,-0.092596
7.769,-0.050511,-0.035013,-0.091987
7.789,-0.050408,-0.034561,-0.091773
7.809,-0.050224,-0.034118,-0.091278
7.829,-0.049839,-0.03342,-0.090392
7.849,-0.049666,-0.032618,-0.089405
7.869,-0.04959,-0.031851,-0.088357
7.889,-0.049006,-0.031252,-0.087472
7.909,-0.047989,-0.030623,-0.086809
7.929,-0.047438,-0.030063,-0.086142
7.949,-0.047434,-0.029422,-0.085401
7.969,-0.047541,-0.02879,-0.084742
7.989,-0.047389,-0.028237,-0.084303
8.009,-0.046875,-0.02771,-0.083954
8.029,-0.046452,-0.027221,-0.083665
8.049,-0.046888,-0.026731,-0.083166
8.069,-0.047538,-0.02606,-0.0826
8.089,-0.047193,-0.025469,-0.082199
8.109,-0.0461,-0.02479,-0.081888
8.129,-0.044784,-0.024192,-0.081818
8.149,-0.044323,-0.023584,-0.081596
8.169,-0.045079,-0.023175,-0.081014
8.189,-0.045855,-0.02284,-0.080388
8.209,-0.045949,-0.022154,-0.079727
8.229,-0.04562,-0.021046,-0.078924
8.249,-0.045487,-0.019707,-0.077794
8.269,-0.045928,-0.018741,-0.076876
8.289,-0.046097,-0.017916,-0.076328
8.309,-0.045267,-0.017017,-0.075843
8.329,-0.044108,-0.016117,-0.075125
8.349,-0.04317,-0.015331,-0.074233
8.369,-0.042582,-0.014787,-0.073444
8.389,-0.041946,-0.014352,-0.072934
8.409,-0.041232,-0.01377,-0.07243
8.429,-0.041109,-0.013034,-0.071734
8.449,-0.041324,-0.012449,-0.071063
8.469,-0.041433,-0.012101,-0.070599
8.489,-0.041344,-0.011701,-0.07005
8.509,-0.041266,-0.011266,-0.069616
8.529,-0.041019,-0.011032,-0.069357
8.549,-0.040804,-0.010795,-0.06904
8.569,-0.040708,-0.010245,-0.068672
8.589,-0.040258,-0.009784,-0.068786
8.609,-0.039624,-0.009638,-0.068962
8.629,-0.039317,-0.009397,-0.068669
8.649,-0.039353,-0.009002,-0.068017
8.669,-0.039676,-0.008565,-0.067352
8.689,-0.039995,-0.008106,-0.066749
8.709,-0.040172,-0.007719,-0.066168
8.729,-0.040281,-0.007402,-0.065521
8.749,-0.040478,-0.007032,-0.064859
8.769,-0.04028,-0.006727,-0.064446
8.789,-0.040275,-0.00645,-0.064076
8.809,-0.040724,-0.006124,-0.063654
