gyro_time_list,gyro_x_list,gyro_y_list,gyro_z_list
0.416,-0.102588,0.021717,-0.049296
0.436,-0.105786,0.023449,-0.050361
0.456,-0.104053,0.024381,-0.049784
0.476,-0.102188,0.022716,-0.047663
0.496,-0.102721,0.023022,-0.046391
0.516,-0.105831,0.026158,-0.046764
0.536,-0.109196,0.029809,-0.046688
0.556,-0.111837,0.031914,-0.044532
0.576,-0.113655,0.033167,-0.042335
0.596,-0.116297,0.034582,-0.041031
0.616,-0.119128,0.035995,-0.040935
0.636,-0.120351,0.036405,-0.039876
0.656,-0.120996,0.035704,-0.036424
0.676,-0.12152,0.035656,-0.033757
0.696,-0.121073,0.036657,-0.031838
0.716,-0.118118,0.038058,-0.030575
0.736,-0.114311,0.038509,-0.028312
0.756,-0.110074,0.039303,-0.026388
0.776,-0.104998,0.04066,-0.024709
0.796,-0.098894,0.042271,-0.023385
0.816,-0.092335,0.04246,-0.021081
0.836,-0.086984,0.043277,-0.019456
0.856,-0.086838,0.045112,-0.017118
0.876,-0.08957,0.045611,-0.015125
0.896,-0.091883,0.046976,-0.012212
0.916,-0.09132,0.049,-0.007876
0.936,-0.08941,0.050772,-0.002038
0.956,-0.08838,0.052034,0.00462
0.976,-0.088767,0.053201,0.011948
0.996,-0.089714,0.05429,0.020126
1.016,-0.0913,0.054692,0.029627
1.036,-0.09434,0.054475,0.04066
1.056,-0.099329,0.053651,0.053013
1.076,-0.103742,0.053521,0.066602
1.096,-0.105643,0.053988,0.081448
1.116,-0.106335,0.05374,0.097932
1.136,-0.107023,0.052399,0.116295
1.156,-0.109153,0.050829,0.136342
1.176,-0.112239,0.049532,0.158226
1.196,-0.116297,0.048451,0.181798
1.216,-0.121446,0.047442,0.20703
1.236,-0.127043,0.046838,0.233892
1.256,-0.133436,0.046739,0.262383
1.276,-0.142244,0.047574,0.291845
1.296,-0.152404,0.050457,0.321956
1.316,-0.16172,0.054352,0.352533
1.336,-0.169854,0.058513,0.383394
1.356,-0.176365,0.063206,0.414568
1.376,-0.180515,0.06858,0.446214
1.396,-0.183762,0.07417,0.477785
1.416,-0.187906,0.079559,0.509196
1.436,-0.193697,0.084688,0.5396
1.456,-0.201805,0.089388,0.568212
1.476,-0.211329,0.093288,0.59479
1.496,-0.220466,0.096245,0.619821
1.516,-0.227646,0.09842,0.643942
1.536,-0.233287,0.100037,0.666798
1.556,-0.237648,0.100968,0.688259
1.576,-0.240393,0.10092,0.708432
1.596,-0.241711,0.09977,0.72745
1.616,-0.24223,0.097695,0.744976
1.636,-0.243393,0.094629,0.760547
1.656,-0.245183,0.090434,0.774117
1.676,-0.246278,0.085049,0.785757
1.696,-0.246542,0.078462,0.79497
1.716,-0.245751,0.07116,0.801841
1.736,-0.243522,0.063443,0.806681
1.756,-0.240676,0.055111,0.809763
1.776,-0.238293,0.046224,0.810768
1.796,-0.235511,0.037359,0.809999
1.816,-0.231505,0.028816,0.807846
1.836,-0.227223,0.020413,0.804367
1.856,-0.22353,0.012179,0.799463
1.876,-0.21949,0.004501,0.793449
1.896,-0.215116,-0.002415,0.786275
1.916,-0.210893,-0.008774,0.777949
1.936,-0.206745,-0.014638,0.768436
1.956,-0.202179,-0.019926,0.758149
1.976,-0.19762,-0.024524,0.74707
1.996,-0.193087,-0.028517,0.735248
2.016,-0.188133,-0.0321,0.722848
2.036,-0.182866,-0.035443,0.710152
2.056,-0.177797,-0.038746,0.697313
2.076,-0.173481,-0.041957,0.684386
2.096,-0.169439,-0.045069,0.671534
2.116,-0.16526,-0.048173,0.658734
2.136,-0.161796,-0.051436,0.645769
2.156,-0.159301,-0.054655,0.632705
2.176,-0.157227,-0.0576,0.619947
2.196,-0.155014,-0.060401,0.607861
2.216,-0.152569,-0.063207,0.596409
2.236,-0.149631,-0.066,0.585474
2.256,-0.146644,-0.068698,0.574796
2.276,-0.143953,-0.071401,0.564389
2.296,-0.141416,-0.073954,0.554346
2.316,-0.138621,-0.076257,0.544871
2.336,-0.13576,-0.07856,0.535728
2.356,-0.13337,-0.081115,0.526826
2.376,-0.131376,-0.083441,0.518255
2.396,-0.128852,-0.085412,0.510306
2.493,-0.126927,-0.089579,0.500952
2.513,-0.123589,-0.093718,0.491911
2.533,-0.118126,-0.098038,0.48334
2.553,-0.112314,-0.103648,0.474379
2.573,-0.107765,-0.110598,0.464448
2.593,-0.104668,-0.117971,0.453325
2.613,-0.100858,-0.125555,0.441255
2.633,-0.094857,-0.133934,0.428193
2.653,-0.086816,-0.143684,0.414466
2.673,-0.077944,-0.154646,0.399681
2.693,-0.069788,-0.167959,0.383303
2.713,-0.06278,-0.185199,0.365486
2.733,-0.054568,-0.206606,0.345128
2.753,-0.039448,-0.232647,0.320658
2.773,-0.020078,-0.262657,0.291015
2.793,-0.018373,-0.284843,0.264776
2.813,-0.039825,-0.279927,0.259849
2.833,-0.084739,-0.258019,0.28701
2.853,-0.148568,-0.22216,0.31949
2.873,-0.192459,-0.191795,0.342706
2.893,-0.175846,-0.161404,0.356196
2.913,-0.101071,-0.131821,0.34788
2.933,-0.004998,-0.109437,0.320787
2.953,0.084172,-0.100494,0.290942
2.973,0.133382,-0.107628,0.259839
2.993,0.149621,-0.122858,0.226258
3.013,0.15123,-0.140612,0.197866
3.033,0.140798,-0.157471,0.175202
3.053,0.117539,-0.176965,0.157513
3.073,0.088332,-0.200685,0.142936
3.093,0.062365,-0.223238,0.133036
3.113,0.045728,-0.242387,0.129931
3.133,0.039651,-0.259926,0.131792
3.153,0.040124,-0.27518,0.137215
3.173,0.045272,-0.284886,0.146148
3.193,0.050139,-0.290009,0.155317
3.213,0.048795,-0.293373,0.160753
3.233,0.039654,-0.294881,0.161178
3.253,0.024135,-0.294998,0.156674
3.273,0.004364,-0.294232,0.148173
3.293,-0.015966,-0.292865,0.137535
3.313,-0.03328,-0.291021,0.126283
3.333,-0.04689,-0.288409,0.115423
3.353,-0.057794,-0.284379,0.106177
3.373,-0.066854,-0.278718,0.099198
3.393,-0.074625,-0.272088,0.093896
3.413,-0.081087,-0.26397,0.089675
3.433,-0.086672,-0.253519,0.086043
3.453,-0.09474,-0.240691,0.081977
3.473,-0.107157,-0.225576,0.07713
3.493,-0.123037,-0.209039,0.071253
3.513,-0.139727,-0.190518,0.064595
3.533,-0.154454,-0.169889,0.0574
3.553,-0.168609,-0.148526,0.049414
3.573,-0.185609,-0.125888,0.04082
3.593,-0.204704,-0.100409,0.032084
3.613,-0.222265,-0.071458,0.023355
3.633,-0.236738,-0.039012,0.014489
3.653,-0.251163,-0.003218,0.005546
3.673,-0.269914,0.036289,-0.003166
3.693,-0.296414,0.080985,-0.01155
3.713,-0.331581,0.131692,-0.021152
3.733,-0.368471,0.188469,-0.028559
3.753,-0.39715,0.257928,-0.032848
3.773,-0.419144,0.355107,-0.030328
3.793,-0.442275,0.476391,-0.017715
3.813,-0.453645,0.607377,0.008694
3.833,-0.426264,0.747149,0.042163
3.853,-0.49573,0.61557,0.077523
3.873,-0.563928,0.39876,-0.009374
3.893,-0.427496,0.595517,-0.107051
3.913,-0.273864,0.799039,-0.10113
3.933,-0.302492,0.717608,-0.153101
3.953,-0.449874,0.632953,-0.26323
3.973,-0.607318,0.630578,-0.287534
3.993,-0.592119,0.642632,-0.359544
4.013,-0.380478,0.653883,-0.426922
4.033,-0.149586,0.677988,-0.478686
4.053,-0.092616,0.716687,-0.522741
4.073,-0.228525,0.71791,-0.559264
4.093,-0.452088,0.687342,-0.568478
4.113,-0.685828,0.669048,-0.568401
4.133,-0.919647,0.634792,-0.571844
4.153,-0.95589,0.601798,-0.562486
4.173,-0.889071,0.59132,-0.549494
4.193,-0.856178,0.573744,-0.542158
4.213,-0.862237,0.547315,-0.533758
4.233,-0.87038,0.52501,-0.519954
4.253,-0.852014,0.506438,-0.504832
4.273,-0.815201,0.484356,-0.490333
4.293,-0.758515,0.460415,-0.474121
4.313,-0.693124,0.439491,-0.456497
4.333,-0.631168,0.420174,-0.439439
4.353,-0.577855,0.401937,-0.423293
4.373,-0.532535,0.386013,-0.407961
4.393,-0.488938,0.37535,-0.393108
4.413,-0.44746,0.366653,-0.378881
4.433,-0.41513,0.357887,-0.366324
4.453,-0.393459,0.347871,-0.355978
4.473,-0.377614,0.336586,-0.347013
4.831,-0.365292,0.326291,-0.338042
4.851,-0.351944,0.316795,-0.329817
4.871,-0.339021,0.307962,-0.322119
4.891,-0.330041,0.299423,-0.31547
4.911,-0.326348,0.290938,-0.309679
4.931,-0.325171,0.282708,-0.304366
4.951,-0.323684,0.274977,-0.299271
4.971,-0.321471,0.26763,-0.294248
4.991,-0.318444,0.260654,-0.288996
5.011,-0.3143,0.253959,-0.283626
5.031,-0.308209,0.247606,-0.278112
5.051,-0.300178,0.241916,-0.272426
5.071,-0.290126,0.237084,-0.266472
5.091,-0.280131,0.232549,-0.260724
5.111,-0.271909,0.227792,-0.255558
5.131,-0.265504,0.222877,-0.250767
5.151,-0.259211,0.21804,-0.246108
5.171,-0.252338,0.2135,-0.241455
5.191,-0.244989,0.20926,-0.236745
5.211,-0.237842,0.20513,-0.231939
5.231,-0.232231,0.200878,-0.22757
5.251,-0.228277,0.196713,-0.223769
5.271,-0.225914,0.192587,-0.220526
5.291,-0.224337,0.188747,-0.217557
5.311,-0.222703,0.185235,-0.214617
5.331,-0.22067,0.181981,-0.211624
5.351,-0.218315,0.178813,-0.208644
5.371,-0.215616,0.175686,-0.205607
5.391,-0.212144,0.17273,-0.20239
5.411,-0.207767,0.170029,-0.199002
5.431,-0.202997,0.167488,-0.195665
5.451,-0.19883,0.164955,-0.19246
5.471,-0.195272,0.162443,-0.18939
5.491,-0.191715,0.160055,-0.186339
5.511,-0.187817,0.157822,-0.183282
5.531,-0.183797,0.155722,-0.180258
5.551,-0.179945,0.153646,-0.177308
5.571,-0.176182,0.151543,-0.174459
5.591,-0.172873,0.149418,-0.171808
5.611,-0.170076,0.147315,-0.169355
5.631,-0.167494,0.145318,-0.166976
5.651,-0.164755,0.143474,-0.164636
5.671,-0.162247,0.141655,-0.162394
5.691,-0.160371,0.139791,-0.16034
5.711,-0.158709,0.137932,-0.158389
5.731,-0.156819,0.136172,-0.156399
5.751,-0.154629,0.13453,-0.154371
5.771,-0.152419,0.13296,-0.152354
5.791,-0.15041,0.131427,-0.150405
5.811,-0.148746,0.129867,-0.148534
5.831,-0.146951,0.128355,-0.146695
5.851,-0.144791,0.126957,-0.144807
5.871,-0.142647,0.12557,-0.142957
5.891,-0.140681,0.124174,-0.141149
5.911,-0.138937,0.122809,-0.139422
5.931,-0.137213,0.121479,-0.137721
5.951,-0.135529,0.12019,-0.136062
5.971,-0.133697,0.11896,-0.134384
5.991,-0.131539,0.117826,-0.132686
6.011,-0.129509,0.116701,-0.131076
6.031,-0.12804,0.115537,-0.129614
6.051,-0.127039,0.11432,-0.128258
6.071,-0.125899,0.113142,-0.126876
6.091,-0.124163,0.112138,-0.125361
6.111,-0.122308,0.111172,-0.123864
6.131,-0.120871,0.11013,-0.122485
6.151,-0.119889,0.109,-0.121246
6.171,-0.119024,0.107905,-0.120036
6.191,-0.117752,0.106928,-0.118743
6.211,-0.116114,0.106056,-0.117384
6.231,-0.114615,0.105171,-0.11607
6.251,-0.113443,0.10423,-0.114855
6.271,-0.112524,0.10328,-0.113732
6.291,-0.111585,0.10236,-0.11263
6.311,-0.110522,0.101484,-0.111518
6.331,-0.109478,0.100623,-0.110422
6.351,-0.108641,0.099757,-0.109374
6.371,-0.107853,0.098904,-0.108346
6.391,-0.10684,0.098124,-0.107287
6.411,-0.105792,0.097374,-0.10624
6.431,-0.104851,0.09661,-0.105244
6.451,-0.103992,0.095825,-0.104286
6.471,-0.103256,0.095025,-0.103359
6.491,-0.102599,0.094238,-0.102448
6.511,-0.101649,0.093529,-0.101493
6.531,-0.100528,0.09287,-0.10051
6.551,-0.099533,0.092219,-0.099559
6.571,-0.098574,0.091556,-0.098658
6.591,-0.097761,0.090874,-0.097802
6.611,-0.097064,0.090205,-0.096974
6.631,-0.09638,0.089555,-0.096142
6.651,-0.095686,0.088906,-0.095309
6.671,-0.094955,0.088271,-0.094459
6.691,-0.094288,0.08763,-0.093616
6.711,-0.093657,0.086985,-0.092795
6.731,-0.093014,0.086344,-0.091993
6.751,-0.092295,0.085738,-0.091182
6.771,-0.09151,0.085145,-0.090347
6.791,-0.090794,0.084533,-0.089533
6.811,-0.090204,0.083919,-0.088734
7.152,-0.089569,0.083313,-0.087972
7.172,-0.089021,0.082691,-0.087264
7.192,-0.088592,0.08208,-0.086584
7.212,-0.088179,0.081485,-0.085888
7.232,-0.087714,0.0809,-0.085177
7.252,-0.087202,0.08032,-0.084453
7.272,-0.086624,0.079759,-0.08371
7.292,-0.08608,0.079193,-0.08299
7.312,-0.085523,0.078629,-0.082266
7.332,-0.084944,0.078081,-0.08155
7.352,-0.084348,0.07754,-0.080841
7.372,-0.083733,0.076997,-0.080132
7.392,-0.083134,0.076468,-0.079421
7.412,-0.082443,0.075951,-0.078715
7.432,-0.081769,0.075442,-0.078041
7.452,-0.081229,0.074928,-0.077387
7.472,-0.080812,0.074395,-0.076765
7.492,-0.080494,0.073853,-0.076174
7.512,-0.080229,0.073307,-0.075582
7.532,-0.079752,0.072818,-0.074943
7.552,-0.079207,0.072348,-0.074302
7.572,-0.078771,0.071847,-0.073693
7.592,-0.078294,0.071355,-0.073078
7.612,-0.077785,0.070875,-0.07246
7.632,-0.077306,0.07039,-0.071858
7.652,-0.076834,0.069905,-0.071267
7.672,-0.076405,0.069419,-0.070687
7.692,-0.07591,0.068975,-0.070084
7.712,-0.075371,0.068542,-0.069481
7.732,-0.074852,0.068114,-0.068895
7.752,-0.074376,0.067685,-0.068311
7.772,-0.07395,0.067226,-0.067789
7.792,-0.073659,0.066743,-0.067303
7.812,-0.073385,0.06628,-0.066818
7.832,-0.073007,0.065867,-0.066301
7.852,-0.072662,0.065434,-0.065782
7.872,-0.072267,0.065027,-0.065242
7.892,-0.071904,0.0646,-0.064711
7.912,-0.071642,0.064159,-0.064202
7.932,-0.071277,0.063744,-0.063687
7.952,-0.070731,0.063383,-0.063126
7.972,-0.070214,0.062999,-0.06259
7.992,-0.069873,0.062569,-0.062108
8.012,-0.069635,0.062139,-0.061631
8.032,-0.069179,0.061756,-0.061124
8.052,-0.068659,0.061405,-0.060622
8.072,-0.068312,0.061016,-0.060164
8.092,-0.068176,0.060584,-0.05975
8.112,-0.068065,0.060156,-0.059339
8.132,-0.067715,0.059786,-0.058877
8.152,-0.067275,0.059457,-0.05839
8.172,-0.066923,0.059101,-0.057938
8.192,-0.066744,0.058711,-0.057524
8.212,-0.066587,0.058316,-0.05712
8.232,-0.066279,0.057955,-0.05669
8.252,-0.065815,0.057629,-0.056226
8.272,-0.065393,0.05728,-0.055777
8.292,-0.065163,0.056907,-0.055371
8.312,-0.064993,0.056542,-0.054977
8.332,-0.064683,0.056214,-0.054556
8.352,-0.064327,0.055901,-0.05413
8.372,-0.064047,0.055567,-0.053723
8.392,-0.06386,0.055203,-0.053335
8.412,-0.063513,0.054884,-0.052912
8.432,-0.063139,0.05457,-0.052511
8.452,-0.062866,0.054246,-0.052142
8.472,-0.06273,0.053908,-0.051816
8.492,-0.062633,0.053568,-0.051482
8.512,-0.062409,0.05326,-0.051118
8.532,-0.062125,0.052966,-0.050724
8.552,-0.061954,0.052644,-0.05036
8.572,-0.061801,0.052313,-0.050018
8.592,-0.061601,0.052005,-0.049668
8.612,-0.061299,0.051723,-0.049273
8.632,-0.060824,0.051476,-0.048796
8.652,-0.060302,0.051237,-0.048331
8.672,-0.0599,0.050979,-0.047921
8.692,-0.05967,0.050663,-0.047622
8.712,-0.059574,0.050345,-0.047377
8.732,-0.05946,0.050055,-0.047122
8.752,-0.059242,0.049781,-0.046835
8.772,-0.059027,0.049478,-0.04653
8.792,-0.058796,0.0492,-0.046201
8.812,-0.058421,0.048968,-0.045805
8.832,-0.057932,0.048767,-0.045382
8.852,-0.057536,0.048567,-0.044976
8.872,-0.057333,0.048315,-0.04464
8.892,-0.05728,0.048028,-0.044368
8.912,-0.057158,0.047751,-0.044085
8.932,-0.056807,0.04753,-0.043762
8.952,-0.056468,0.047286,-0.043457
8.972,-0.056321,0.047002,-0.043205
8.992,-0.056302,0.046728,-0.04297
9.012,-0.056151,0.046493,-0.04269
9.032,-0.055793,0.046293,-0.042368
9.052,-0.055482,0.046087,-0.042047
9.072,-0.055359,0.045819,-0.04179
9.092,-0.055354,0.045556,-0.041558
9.112,-0.05523,0.045335,-0.041301
9.132,-0.055086,0.045139,-0.041032
9.334,-0.054917,0.044916,-0.040715
9.354,-0.054803,0.044675,-0.040439
9.374,-0.054541,0.044477,-0.040145
9.394,-0.054273,0.044278,-0.039873
9.414,-0.054186,0.044027,-0.039632
9.434,-0.054135,0.043774,-0.039403
9.454,-0.053892,0.043576,-0.039127
9.474,-0.053597,0.043381,-0.038851
9.494,-0.053474,0.043159,-0.038625
9.514,-0.053452,0.042917,-0.038429
9.534,-0.053365,0.042699,-0.038217
9.554,-0.053236,0.042492,-0.037996
9.574,-0.053076,0.042284,-0.037772
9.594,-0.052921,0.04206,-0.037539
9.614,-0.052687,0.041875,-0.037284
9.634,-0.052419,0.041711,-0.037006
9.654,-0.052193,0.041535,-0.036737
9.674,-0.052011,0.041358,-0.036481
9.694,-0.05187,0.041181,-0.036247
9.714,-0.051628,0.041001,-0.036007
9.734,-0.051474,0.04082,-0.035786
9.754,-0.051529,0.040608,-0.035637
9.774,-0.051689,0.040381,-0.035493
9.794,-0.051655,0.040189,-0.035287
9.814,-0.051534,0.040023,-0.035062
9.834,-0.051429,0.039846,-0.034833
9.854,-0.051373,0.039649,-0.03464
9.874,-0.051282,0.039468,-0.034446
9.894,-0.051128,0.039324,-0.034224
9.914,-0.050996,0.039173,-0.034005
9.934,-0.050872,0.039013,-0.033805
9.954,-0.050711,0.038859,-0.0336
9.974,-0.050478,0.038712,-0.033375
9.994,-0.050271,0.038551,-0.033149
10.014,-0.050177,0.038365,-0.032954
10.034,-0.050091,0.038201,-0.032753
10.054,-0.0498,0.03809,-0.032502
10.074,-0.049322,0.038035,-0.032223
10.094,-0.04886,0.037942,-0.031966
10.114,-0.048451,0.037821,-0.031729
10.134,-0.047884,0.037735,-0.031457
10.154,-0.047011,0.037694,-0.031097
10.174,-0.04574,0.037674,-0.030671
10.194,-0.044032,0.037737,-0.03016
10.214,-0.04191,0.037843,-0.02964
10.234,-0.039652,0.037892,-0.029205
10.254,-0.037677,0.037845,-0.028858
10.274,-0.035996,0.037838,-0.028492
10.294,-0.034459,0.037838,-0.028137
10.314,-0.033049,0.037752,-0.027838
10.334,-0.031765,0.037682,-0.02758
10.354,-0.030596,0.037724,-0.027309
10.374,-0.029797,0.037613,-0.027164
10.394,-0.029797,0.037231,-0.027268
10.414,-0.030586,0.036694,-0.027527
10.434,-0.030346,0.036466,-0.027545
10.454,-0.028831,0.036553,-0.027207
10.474,-0.026839,0.036465,-0.02671
10.494,-0.025223,0.036235,-0.026704
10.514,-0.024597,0.035928,-0.027015
10.534,-0.024497,0.035229,-0.027123
10.554,-0.024205,0.034165,-0.027298
10.574,-0.023807,0.033342,-0.027642
10.594,-0.023295,0.033001,-0.027816
10.614,-0.023442,0.032211,-0.028072
10.634,-0.024703,0.031182,-0.028591
10.654,-0.026306,0.0302,-0.029197
10.674,-0.027121,0.029896,-0.029572
10.694,-0.027161,0.029271,-0.029728
10.714,-0.0265,0.028889,-0.02969
10.734,-0.024989,0.028732,-0.029252
10.754,-0.022453,0.028497,-0.02862
10.774,-0.019184,0.02819,-0.027917
10.794,-0.015481,0.028002,-0.027006
10.814,-0.011708,0.027771,-0.025741
10.834,-0.007983,0.026894,-0.024705
10.854,-0.00442,0.02574,-0.023801
10.874,-0.000379,0.025288,-0.022421
10.894,0.004698,0.025583,-0.020949
10.914,0.010368,0.025462,-0.019863
10.934,0.016088,0.025358,-0.019021
10.954,0.021756,0.025811,-0.018039
10.974,0.02685,0.026469,-0.017286
10.994,0.030581,0.02642,-0.017113
11.014,0.033121,0.025792,-0.017207
11.034,0.035285,0.025278,-0.017175
11.054,0.037996,0.025288,-0.016962
11.074,0.041831,0.025297,-0.016721
11.094,0.046589,0.024945,-0.016465
11.114,0.050877,0.025248,-0.016084
11.134,0.052426,0.025861,-0.01588
11.154,0.050742,0.025394,-0.016156
11.174,0.047996,0.024681,-0.016777
11.194,0.046538,0.025063,-0.01705
11.214,0.0465,0.0255,-0.017021
11.234,0.046879,0.025425,-0.016964
11.254,0.047184,0.025471,-0.016845
11.274,0.047579,0.025709,-0.016872
11.294,0.049002,0.02597,-0.016564
11.314,0.051494,0.026022,-0.016104
