accel_time_list,accel_x_list,accel_y_list,accel_z_list
1.82,0.721852,-0.217872,6.138733
1.84,0.943577,-0.194695,8.286963
1.86,0.717689,-0.296994,9.277852
1.88,0.81052,-0.173095,10.05416
1.9,0.616648,-0.11243,10.72953
1.92,0.469254,-0.020258,10.98757
1.94,0.361969,0.055887,11.04893
1.96,0.168366,0.079968,11.11091
1.999,0.139858,0.124349,11.45148
2.019,0.143773,0.104783,11.6464
2.039,0.16291,0.066107,11.65037
2.059,0.178876,0.011004,11.42938
2.079,0.168636,-0.074986,11.14858
2.099,0.241118,-0.175631,10.95009
2.119,0.355977,-0.274663,10.80821
2.139,0.439455,-0.314632,10.74202
2.159,0.573634,-0.303452,10.80069
2.179,0.691377,-0.262799,10.85242
2.199,0.749388,-0.254785,10.87741
2.219,0.786221,-0.279932,10.87226
2.239,0.834595,-0.277691,10.83712
2.278,0.889552,-0.23363,10.92047
2.298,0.928188,-0.159787,11.00052
2.318,0.935254,-0.100489,11.0348
2.338,0.949577,-0.093928,11.00756
2.358,0.944433,-0.106628,10.9845
2.378,0.935053,-0.116071,10.98272
2.398,0.964829,-0.127262,10.97592
2.418,0.982788,-0.131509,10.9785
2.438,1.027774,-0.120371,11.01877
2.458,1.050017,-0.103526,11.0892
2.478,1.073449,-0.066667,11.12842
2.498,1.066945,-0.053426,11.12251
2.518,1.09321,-0.02987,11.10582
2.538,1.121512,-0.01546,11.06434
2.577,1.113353,0.017697,11.06017
2.597,1.106388,0.045718,11.0445
2.617,1.106644,0.065689,11.04626
2.637,1.114767,0.065598,11.02988
2.657,1.122042,0.062342,11.00199
2.677,1.116757,0.048283,10.93308
2.697,1.156679,0.025637,10.96341
2.717,1.197245,0.012121,11.04215
2.737,1.233538,-0.00568,11.07613
2.757,1.24537,-0.015582,11.06742
2.777,1.252464,-0.017683,11.01945
2.797,1.262507,-0.013978,10.98908
2.817,1.2816,-0.014248,11.01302
2.856,1.287494,-0.014813,10.99426
2.876,1.299702,-0.015705,10.96839
2.896,1.315908,-0.009003,10.97927
2.916,1.331605,-0.010845,10.99011
2.936,1.344826,-0.022489,10.98514
2.956,1.365834,-0.034504,10.98638
2.976,1.389375,-0.022462,11.00332
2.996,1.403307,-0.01133,11.02453
3.016,1.420234,-0.006248,11.00932
3.036,1.42505,0.003839,10.99278
3.056,1.421584,0.010503,10.95306
3.076,1.432788,0.020069,10.9368
3.096,1.464778,0.009905,10.95868
3.135,1.491363,-0.015806,10.96125
3.155,1.508959,-0.032065,10.94316
3.175,1.51406,-0.044324,10.90938
3.195,1.516172,-0.049214,10.86236
3.215,1.528196,-0.041469,10.82724
3.235,1.550191,-0.034031,10.82542
3.255,1.57554,-0.036452,10.86119
3.275,1.604233,-0.041715,10.92158
3.295,1.634027,-0.062348,10.91793
3.315,1.642615,-0.087386,10.87723
3.335,1.656452,-0.113392,10.83242
3.355,1.68731,-0.131046,10.82646
3.375,1.712736,-0.138522,10.87317
3.395,1.73525,-0.151548,10.87516
3.434,1.755732,-0.182202,10.85452
3.454,1.774089,-0.209571,10.83121
3.474,1.77845,-0.218341,10.81725
3.494,1.765549,-0.222884,10.81691
3.514,1.735201,-0.235886,10.83648
3.534,1.706449,-0.242862,10.85446
3.554,1.671039,-0.256014,10.86369
3.574,1.64663,-0.266081,10.86684
3.594,1.629636,-0.275165,10.86071
3.614,1.609466,-0.275264,10.87328
3.634,1.592144,-0.273489,10.8819
3.654,1.572743,-0.275455,10.88708
3.674,1.557103,-0.276288,10.89161
3.713,1.548123,-0.278475,10.89706
3.733,1.530551,-0.279009,10.90164
3.753,1.524017,-0.285553,10.90587
3.773,1.522773,-0.293606,10.90277
3.793,1.519811,-0.305526,10.88834
3.813,1.522775,-0.311289,10.89482
3.833,1.528278,-0.320465,10.88752
3.853,1.533712,-0.333765,10.87852
3.873,1.538137,-0.345803,10.87292
3.893,1.544595,-0.354492,10.87288
3.913,1.550254,-0.364798,10.87547
3.933,1.557585,-0.376159,10.87792
3.958,1.563765,-0.37993,10.8886
3.992,1.56874,-0.388995,10.88427
4.012,1.57094,-0.404037,10.8742
4.032,1.575812,-0.421023,10.86507
4.052,1.57912,-0.43703,10.86237
4.072,1.587968,-0.455599,10.8617
4.092,1.595819,-0.471055,10.86119
4.112,1.605376,-0.488743,10.85931
4.132,1.615571,-0.505571,10.85121
4.152,1.62569,-0.523922,10.84427
4.172,1.635975,-0.544467,10.83785
4.192,1.646637,-0.567718,10.83159
4.212,1.659388,-0.589365,10.82804
4.232,1.670012,-0.605822,10.82704
4.271,1.677657,-0.622068,10.8243
4.291,1.68358,-0.638783,10.81813
4.311,1.690885,-0.656767,10.81288
4.331,1.698647,-0.674977,10.81057
4.351,1.706855,-0.68533,10.81476
4.371,1.707764,-0.706442,10.81839
4.391,1.713995,-0.723436,10.81258
4.411,1.721353,-0.740431,10.80447
4.431,1.731291,-0.75549,10.79948
4.451,1.740218,-0.767744,10.79523
4.471,1.750267,-0.78355,10.78944
4.491,1.765315,-0.803903,10.77994
4.511,1.77578,-0.828353,10.77395
4.531,1.786713,-0.845841,10.76901
4.551,1.789766,-0.867078,10.76716
4.59,1.796223,-0.881096,10.76614
4.61,1.810415,-0.894889,10.76924
4.63,1.823209,-0.914019,10.7691
4.65,1.819546,-0.926252,10.78095
4.67,1.823448,-0.942864,10.77059
4.69,1.822927,-0.964161,10.75774
4.71,1.828602,-0.991912,10.746
4.73,1.841604,-1.020275,10.74571
4.75,1.847798,-1.033084,10.76796
4.77,1.851692,-1.051577,10.77879
4.79,1.864717,-1.069554,10.77139
4.81,1.890815,-1.083315,10.74732
4.83,1.927905,-1.082491,10.72714
4.869,1.974628,-1.082342,10.69125
4.889,2.015363,-1.079108,10.65873
4.909,2.064771,-1.092101,10.64763
4.929,2.099052,-1.110711,10.64556
4.949,2.131893,-1.120858,10.6329
4.969,2.162565,-1.131543,10.61307
4.989,2.190208,-1.145401,10.59114
5.009,2.216588,-1.156471,10.57241
5.029,2.243576,-1.162304,10.57124
5.049,2.268169,-1.165155,10.58004
5.069,2.281416,-1.183786,10.59816
5.089,2.294893,-1.180684,10.5959
5.109,2.329014,-1.169372,10.58203
5.148,2.351707,-1.163866,10.57978
5.168,2.373367,-1.149997,10.58002
5.188,2.392944,-1.14029,10.57745
5.208,2.409009,-1.131911,10.57458
5.228,2.424317,-1.124031,10.56963
5.248,2.439938,-1.117759,10.57362
5.268,2.451362,-1.115679,10.58283
5.288,2.464902,-1.107549,10.5821
5.308,2.471707,-1.094458,10.5775
5.328,2.485054,-1.091465,10.58012
5.348,2.499363,-1.104033,10.56616
5.368,2.519209,-1.105781,10.54894
5.388,2.526221,-1.092982,10.55736
5.427,2.538167,-1.087898,10.54962
5.447,2.543591,-1.079444,10.54524
5.467,2.539819,-1.060316,10.54533
5.487,2.535444,-1.037841,10.55787
5.507,2.523844,-1.025113,10.57397
5.527,2.510982,-1.013456,10.58167
5.547,2.483909,-1.01101,10.58498
5.567,2.466334,-1.016921,10.57542
5.587,2.459916,-1.008361,10.58583
5.607,2.447948,-0.992418,10.59259
5.627,2.43957,-0.974418,10.5948
5.647,2.423526,-0.94756,10.60299
5.667,2.411357,-0.925351,10.60481
5.706,2.399472,-0.914382,10.60772
5.726,2.384606,-0.90495,10.61419
5.746,2.366931,-0.895506,10.62323
5.766,2.347501,-0.884421,10.63383
5.786,2.330176,-0.874064,10.63655
5.806,2.315092,-0.866136,10.63304
5.826,2.297983,-0.86094,10.62959
5.846,2.27923,-0.859341,10.63195
5.866,2.264813,-0.85875,10.63061
5.886,2.253562,-0.859324,10.62995
5.906,2.240742,-0.857374,10.62995
5.926,2.227718,-0.856993,10.6332
5.946,2.216722,-0.856875,10.63971
5.985,2.205444,-0.85446,10.63968
6.005,2.194833,-0.849173,10.63312
6.025,2.184135,-0.847295,10.6317
6.045,2.174814,-0.845793,10.63238
6.065,2.166398,-0.844217,10.63656
6.085,2.153854,-0.841828,10.64384
6.108,2.14266,-0.839927,10.64584
6.146,2.130543,-0.837997,10.64894
6.185,2.116974,-0.836822,10.65183
6.205,2.106462,-0.837294,10.65024
6.244,2.096291,-0.836104,10.65278
6.264,2.086797,-0.834056,10.65571
6.284,2.075892,-0.832181,10.65892
6.304,2.066194,-0.83098,10.65938
6.324,2.057226,-0.830209,10.65883
6.344,2.047341,-0.828115,10.66255
6.364,2.037216,-0.824564,10.66461
6.384,2.025832,-0.822024,10.66772
6.404,2.015594,-0.820549,10.66881
6.424,2.006118,-0.818694,10.66766
6.444,1.9992,-0.817106,10.66747
6.464,1.992704,-0.81595,10.67055
6.484,1.985576,-0.813275,10.67444
6.504,1.978806,-0.811073,10.67619
6.543,1.971393,-0.809136,10.6751
6.563,1.965834,-0.808012,10.67548
6.583,1.958558,-0.805318,10.67826
6.603,1.950691,-0.802706,10.68193
6.623,1.942118,-0.800406,10.68342
6.643,1.932708,-0.797772,10.6846
6.663,1.92372,-0.79499,10.68608
6.683,1.916159,-0.792077,10.68671
6.703,1.90942,-0.788436,10.68877
6.723,1.901703,-0.78706,10.69021
6.743,1.893213,-0.785653,10.69111
6.763,1.884213,-0.783625,10.69218
6.783,1.875252,-0.78132,10.69345
6.822,1.86493,-0.779215,10.69569
6.842,1.855563,-0.776914,10.69674
6.862,1.846856,-0.775311,10.69685
6.882,1.837566,-0.772857,10.69836
6.902,1.827776,-0.770089,10.70154
6.922,1.817873,-0.767412,10.7029
6.942,1.808433,-0.765056,10.70404
6.962,1.799164,-0.762725,10.70551
6.982,1.790258,-0.760648,10.70699
7.002,1.781272,-0.758504,10.7087
7.022,1.77179,-0.756352,10.70995
7.042,1.761984,-0.754449,10.71075
7.062,1.75303,-0.75285,10.71121
7.101,1.744243,-0.750318,10.7138
7.121,1.73564,-0.748123,10.71516
7.141,1.726731,-0.746717,10.71577
7.161,1.719187,-0.744799,10.71572
7.181,1.710845,-0.742274,10.71618
7.201,1.703783,-0.740022,10.71675
7.221,1.695442,-0.737373,10.71753
7.241,1.688002,-0.735226,10.71706
7.261,1.675611,-0.733287,10.71792
7.281,1.664256,-0.72954,10.72002
7.301,1.654861,-0.724899,10.72433
7.321,1.645204,-0.723978,10.72841
7.36,1.634069,-0.721384,10.72768
7.38,1.622638,-0.716208,10.72749
7.4,1.613343,-0.715474,10.72711
7.42,1.602996,-0.71304,10.72728
7.44,1.591948,-0.711258,10.7297
7.46,1.581578,-0.708132,10.73164
7.48,1.573479,-0.706585,10.73372
7.5,1.563194,-0.70566,10.734
7.52,1.55221,-0.705376,10.73306
7.54,1.540384,-0.705408,10.73264
7.56,1.528283,-0.705698,10.73389
7.58,1.517367,-0.706025,10.73635
7.6,1.506102,-0.705946,10.73739
7.639,1.49352,-0.705494,10.73908
7.659,1.482051,-0.706003,10.74069
7.679,1.471182,-0.705899,10.74004
7.699,1.461644,-0.706597,10.73955
7.719,1.450095,-0.705824,10.74094
7.739,1.440494,-0.706438,10.74323
7.759,1.430725,-0.707551,10.74427
7.779,1.421842,-0.708898,10.74355
7.799,1.412479,-0.709744,10.74292
7.819,1.403925,-0.710735,10.74433
7.839,1.395326,-0.711424,10.74626
7.859,1.386502,-0.712651,10.74731
7.879,1.377416,-0.713185,10.74673
7.899,1.367009,-0.713438,10.74686
7.938,1.357442,-0.713975,10.74785
7.958,1.348552,-0.714631,10.74903
7.978,1.339455,-0.715207,10.7499
7.998,1.330403,-0.715789,10.75062
8.018,1.321647,-0.716575,10.75136
8.038,1.313613,-0.71734,10.75221
8.058,1.304979,-0.717892,10.7528
8.078,1.296761,-0.718511,10.75348
8.098,1.288762,-0.71904,10.75374
8.118,1.280998,-0.719959,10.75401
8.138,1.273432,-0.720931,10.75419
8.158,1.265904,-0.721881,10.75466
8.178,1.257551,-0.72255,10.75606
8.217,1.248096,-0.722624,10.75717
8.237,1.239702,-0.723248,10.75665
8.257,1.231892,-0.724253,10.75774
8.277,1.223716,-0.725237,10.75815
8.3,1.218094,-0.725656,10.75883
8.337,1.21114,-0.726059,10.75889
8.357,1.204427,-0.72693,10.76115
8.377,1.199926,-0.728458,10.76183
8.397,1.194908,-0.729129,10.76079
8.417,1.190064,-0.729134,10.76087
8.437,1.18411,-0.728302,10.76093
8.457,1.178694,-0.728153,10.76031
8.496,1.171499,-0.728612,10.76375
8.516,1.166421,-0.730162,10.76615
8.536,1.162699,-0.730664,10.76383
8.556,1.157522,-0.729286,10.76271
8.576,1.153439,-0.728316,10.76296
8.596,1.147295,-0.727112,10.76459
8.616,1.141377,-0.727874,10.76655
8.636,1.130764,-0.73776,10.75884
8.656,1.13071,-0.734707,10.75969
8.676,1.125966,-0.728031,10.76464
8.696,1.119313,-0.726111,10.76643
8.716,1.115232,-0.722818,10.7677
8.736,1.107809,-0.722214,10.76883
8.775,1.100055,-0.720642,10.77046
8.795,1.094973,-0.718731,10.77066
8.815,1.089795,-0.716257,10.77041
8.835,1.080857,-0.716766,10.7712
8.855,1.074397,-0.715095,10.77326
8.875,1.069886,-0.714418,10.77418
8.895,1.059569,-0.714435,10.77439
8.915,1.049876,-0.714774,10.77291
8.935,1.043168,-0.715237,10.77307
8.955,1.038193,-0.715506,10.77405
8.975,1.033635,-0.715285,10.77564
8.995,1.02203,-0.71888,10.77476
9.015,1.010222,-0.722975,10.77242
9.054,1.007153,-0.720647,10.77403
9.074,1.002308,-0.719806,10.77642
9.094,0.995979,-0.720753,10.77782
9.114,0.987347,-0.717984,10.77999
9.134,0.982054,-0.715523,10.77483
9.154,0.980796,-0.713107,10.77411
9.174,0.982065,-0.710249,10.77356
9.194,0.978843,-0.707405,10.77604
9.214,0.975812,-0.704131,10.77964
9.234,0.972922,-0.700883,10.78065
9.254,0.967365,-0.697963,10.77985
9.274,0.963698,-0.696072,10.78148
9.294,0.965139,-0.69313,10.78235
9.333,0.965229,-0.690048,10.78195
9.353,0.965379,-0.686775,10.78436
9.373,0.967345,-0.684167,10.78579
9.393,0.971685,-0.682882,10.78692
9.413,0.975233,-0.682397,10.78651
9.433,0.97421,-0.678959,10.78069
9.453,0.97448,-0.676519,10.77797
9.473,0.978744,-0.674818,10.77853
9.493,0.982807,-0.671171,10.77969
9.513,0.983359,-0.667916,10.7845
9.533,0.984286,-0.666032,10.7927
9.553,0.989337,-0.66421,10.79613
9.573,0.99413,-0.661518,10.7942
9.593,0.996027,-0.659731,10.79108
9.632,0.998553,-0.657774,10.78912
9.652,1.00452,-0.655738,10.78719
9.672,1.007586,-0.654893,10.78882
9.692,1.011153,-0.654104,10.79129
9.712,1.017029,-0.653621,10.79134
9.732,1.022137,-0.653402,10.79184
9.752,1.024031,-0.652916,10.79122
9.772,1.027196,-0.65279,10.79054
9.792,1.031151,-0.652123,10.78964
9.812,1.036946,-0.652178,10.79021
9.832,1.043336,-0.6519,10.78951
9.852,1.048123,-0.652141,10.78878
9.872,1.051988,-0.651846,10.78913
9.911,1.054658,-0.651785,10.79108
9.931,1.055503,-0.651311,10.79158
9.951,1.056699,-0.651157,10.79099
9.971,1.061462,-0.650516,10.79086
9.991,1.062989,-0.649975,10.79225
10.011,1.061149,-0.649086,10.79525
10.031,1.065852,-0.649094,10.79536
10.051,1.071695,-0.649027,10.79359
10.071,1.078089,-0.647681,10.79256
10.091,1.081006,-0.648033,10.79325
10.111,1.084047,-0.648401,10.79356
10.131,1.087631,-0.64816,10.79381
10.151,1.090239,-0.648051,10.79441
10.19,1.094415,-0.647073,10.7945
10.21,1.097603,-0.645981,10.79548
10.23,1.100845,-0.646277,10.7951
10.25,1.102495,-0.645865,10.79597
10.27,1.104328,-0.644952,10.7974
10.29,1.106423,-0.645077,10.79742
10.31,1.10957,-0.645036,10.79783
10.33,1.112018,-0.64487,10.79801
10.35,1.114761,-0.645047,10.79792
10.37,1.117821,-0.644441,10.79837
10.39,1.119745,-0.644762,10.79908
10.41,1.122355,-0.64509,10.79912
10.43,1.125956,-0.645175,10.79877
10.455,1.130178,-0.645215,10.7991
10.489,1.133853,-0.645087,10.79955
10.509,1.136377,-0.645418,10.80022
10.529,1.139497,-0.645966,10.79999
10.549,1.142478,-0.646353,10.79902
10.569,1.145205,-0.647681,10.79753
10.589,1.147909,-0.648034,10.79744
10.609,1.150999,-0.64715,10.79831
10.629,1.154522,-0.64473,10.79962
10.649,1.155522,-0.645135,10.80092
10.669,1.156183,-0.645632,10.80119
10.689,1.15895,-0.645781,10.8014
10.709,1.160365,-0.645938,10.80174
10.729,1.160969,-0.647248,10.80137
10.768,1.163283,-0.647245,10.80164
10.788,1.16694,-0.646264,10.80204
10.808,1.168631,-0.646426,10.80234
10.828,1.169344,-0.646934,10.80339
10.848,1.170997,-0.647202,10.80362
10.868,1.172145,-0.648133,10.80348
10.888,1.173759,-0.648236,10.80352
10.928,1.175067,-0.648247,10.80332
10.948,1.175698,-0.648474,10.80307
10.968,1.176529,-0.648807,10.80285
10.988,1.178322,-0.648285,10.80338
11.008,1.179982,-0.648122,10.80413
11.047,1.17934,-0.648182,10.80519
11.067,1.179073,-0.648119,10.80524
11.087,1.179492,-0.648399,10.8052
11.107,1.179661,-0.648058,10.8052
11.127,1.179582,-0.64824,10.80651
11.147,1.179295,-0.648388,10.80788
11.167,1.179346,-0.648712,10.80815
11.187,1.179824,-0.649317,10.80772
11.207,1.181296,-0.649734,10.80708
11.227,1.182116,-0.64957,10.80758
11.249,1.183043,-0.649184,10.80928
11.287,1.183814,-0.648944,10.80948
11.326,1.184567,-0.649047,10.80884
11.346,1.185674,-0.649537,10.80873
11.366,1.186682,-0.649606,10.80878
11.386,1.187235,-0.649477,10.80977
11.406,1.188451,-0.649303,10.81072
11.426,1.189746,-0.649144,10.81089
11.446,1.191286,-0.649331,10.8106
11.466,1.192847,-0.64929,10.81065
11.486,1.193945,-0.649328,10.81134
11.506,1.195419,-0.649194,10.812
11.526,1.197494,-0.649347,10.81208
11.546,1.19879,-0.649223,10.81154
11.566,1.200686,-0.649375,10.81092
11.605,1.202341,-0.649205,10.81179
11.625,1.204417,-0.648899,10.81272
11.645,1.206446,-0.648739,10.81281
11.665,1.208397,-0.648921,10.81241
11.685,1.210163,-0.649261,10.81188
11.705,1.212324,-0.648966,10.81181
11.725,1.214224,-0.648868,10.81225
11.745,1.216326,-0.648665,10.81231
11.765,1.217806,-0.648554,10.81247
11.785,1.218458,-0.648942,10.81287
11.805,1.218554,-0.649298,10.81352
11.825,1.217384,-0.651691,10.81299
11.845,1.213156,-0.656125,10.81216
11.884,1.215209,-0.654918,10.81184
11.904,1.220709,-0.650116,10.81156
11.924,1.225449,-0.644448,10.81203
11.944,1.226419,-0.642988,10.81285
11.964,1.228282,-0.641587,10.81205
11.984,1.230834,-0.639629,10.81133
12.004,1.230729,-0.638082,10.8132
12.024,1.229948,-0.636339,10.8146
12.044,1.225702,-0.64071,10.81413
12.064,1.226335,-0.638516,10.81239
12.084,1.234196,-0.630916,10.81176
12.104,1.234305,-0.629264,10.81195
12.124,1.230113,-0.627307,10.81536
12.163,1.227384,-0.626078,10.81648
12.183,1.224402,-0.625346,10.8168
12.203,1.222612,-0.624225,10.81523
12.223,1.221524,-0.624386,10.81447
12.243,1.220115,-0.622716,10.81572
12.263,1.217763,-0.622436,10.81716
12.283,1.215354,-0.622324,10.81709
12.303,1.211937,-0.623051,10.8167
12.323,1.207087,-0.623953,10.81742
12.343,1.203201,-0.624277,10.8177
12.363,1.199064,-0.624695,10.81864
12.383,1.194974,-0.625059,10.81777
12.403,1.193059,-0.624015,10.81698
12.442,1.18992,-0.623301,10.81762
12.462,1.188776,-0.621564,10.81972
12.482,1.18527,-0.620077,10.82047
12.502,1.180252,-0.617903,10.82179
12.522,1.176593,-0.616221,10.82297
12.542,1.175029,-0.613962,10.8246
12.562,1.173638,-0.615073,10.82272
12.582,1.170786,-0.615538,10.82147
12.602,1.168201,-0.615537,10.82081
12.622,1.1655,-0.614518,10.82228
12.644,1.162721,-0.613481,10.82413
12.682,1.159634,-0.614999,10.82206
12.702,1.158086,-0.615402,10.82116
12.741,1.154342,-0.614877,10.82339
12.761,1.149858,-0.613824,10.82499
12.781,1.14692,-0.613052,10.82493
12.801,1.145529,-0.613204,10.82464
12.821,1.144982,-0.613904,10.82474
12.841,1.143206,-0.614586,10.82675
12.861,1.140732,-0.615272,10.82857
12.881,1.13918,-0.618083,10.82737
12.901,1.138495,-0.62063,10.82592
12.921,1.137914,-0.623453,10.82432
12.941,1.138169,-0.625732,10.82465
12.961,1.138549,-0.627304,10.82409
13,1.140685,-0.628907,10.82432
13.02,1.139484,-0.630657,10.82543
13.04,1.137451,-0.633858,10.82364
13.06,1.134384,-0.637854,10.82097
13.08,1.135099,-0.642032,10.82218
13.1,1.136012,-0.643678,10.82368
13.12,1.134368,-0.645027,10.82483
13.14,1.130691,-0.645541,10.82722
13.16,1.128442,-0.646321,10.82761
13.18,1.128139,-0.64788,10.82685
13.2,1.128667,-0.649579,10.82613
13.22,1.127769,-0.650837,10.82695
13.24,1.126409,-0.651505,10.82714
13.279,1.125545,-0.652588,10.82882
13.299,1.124714,-0.653334,10.82914
13.319,1.123092,-0.654696,10.82862
13.339,1.122229,-0.655996,10.82794
13.359,1.121995,-0.657075,10.82713
13.379,1.122045,-0.657854,10.8259
13.399,1.123334,-0.659892,10.82721
13.419,1.12307,-0.661021,10.82825
13.439,1.122836,-0.662124,10.82874
13.459,1.122204,-0.663137,10.82858
13.479,1.12115,-0.664166,10.82891
13.499,1.120112,-0.66512,10.82937
13.519,1.118509,-0.666355,10.82913
13.558,1.117458,-0.667542,10.8296
13.578,1.117195,-0.669002,10.82998
13.598,1.115945,-0.670229,10.83163
13.618,1.114574,-0.671665,10.83261
13.638,1.115052,-0.671676,10.83186
13.658,1.112094,-0.673187,10.83174
13.678,1.110717,-0.67555,10.83064
13.698,1.109821,-0.678014,10.82981
13.718,1.108152,-0.680006,10.83039
13.738,1.106537,-0.682007,10.83051
13.758,1.104589,-0.683904,10.83061
13.778,1.102857,-0.685724,10.83072
13.817,1.102663,-0.688143,10.83003
13.837,1.102926,-0.690791,10.82969
13.857,1.10226,-0.693294,10.83026
13.877,1.099781,-0.695029,10.83164
13.897,1.09653,-0.696645,10.83245
13.917,1.095061,-0.698783,10.83249
13.937,1.094551,-0.701615,10.83133
13.957,1.09369,-0.703786,10.83047
13.977,1.095132,-0.706759,10.82916
13.997,1.094943,-0.709157,10.82932
14.017,1.092029,-0.710725,10.83046
14.037,1.087656,-0.712174,10.83052
14.076,1.088297,-0.71525,10.82992
14.096,1.08787,-0.719422,10.8299
14.116,1.086237,-0.723136,10.83024
14.136,1.080577,-0.72615,10.83147
14.156,1.075222,-0.72588,10.83171
14.176,1.07292,-0.727497,10.83264
14.196,1.071121,-0.729917,10.83266
14.216,1.069436,-0.732137,10.83197
14.236,1.067962,-0.734431,10.83146
14.256,1.066443,-0.736973,10.83135
14.276,1.064739,-0.738887,10.83167
14.296,1.062449,-0.737245,10.83216
14.316,1.060274,-0.738006,10.83287
14.355,1.057679,-0.741093,10.83281
14.375,1.057043,-0.742879,10.83305
14.395,1.055967,-0.74213,10.83405
14.415,1.053288,-0.742413,10.83452
14.435,1.050515,-0.745984,10.83306
14.455,1.046655,-0.750133,10.83103
14.475,1.04431,-0.75446,10.83249
14.495,1.043315,-0.757507,10.83269
14.515,1.041927,-0.757483,10.83153
14.535,1.037381,-0.758252,10.83313
14.555,1.031847,-0.761948,10.83137
14.575,1.027054,-0.766323,10.82954
14.614,1.025373,-0.769472,10.83073
14.634,1.023054,-0.771069,10.83082
14.654,1.017999,-0.773416,10.83068
14.674,1.011465,-0.774209,10.83166
14.694,1.005847,-0.776925,10.83044
14.714,1.000749,-0.779372,10.83083
14.734,0.995486,-0.78227,10.83103
14.754,0.989325,-0.785935,10.83166
14.774,0.985458,-0.786981,10.82863
14.794,0.982792,-0.78884,10.8275
14.817,0.975317,-0.79087,10.82988
14.854,0.970762,-0.793697,10.82888
14.893,0.966115,-0.795273,10.82872
14.913,0.960398,-0.797138,10.82923
14.933,0.954198,-0.799233,10.83018
14.953,0.948918,-0.801233,10.82927
14.973,0.94366,-0.803604,10.83017
14.993,0.939425,-0.806376,10.83094
15.013,0.935779,-0.808877,10.83128
15.033,0.932871,-0.811824,10.83024
15.053,0.930757,-0.815479,10.82869
15.073,0.928488,-0.818493,10.82744
15.093,0.925918,-0.821145,10.82813
15.113,0.923459,-0.824232,10.8285
15.133,0.922792,-0.827382,10.82751
15.172,0.920034,-0.831037,10.8268
15.192,0.916647,-0.834548,10.82637
15.212,0.913097,-0.837448,10.82617
15.232,0.911335,-0.841615,10.82631
15.252,0.909317,-0.845005,10.82443
15.272,0.90592,-0.846862,10.82541
15.292,0.902681,-0.849681,10.82527
15.312,0.899928,-0.85355,10.82464
15.332,0.896501,-0.857059,10.8257
15.352,0.89485,-0.860155,10.82443
15.372,0.892386,-0.865322,10.82211
15.392,0.8906,-0.867605,10.82234
15.431,0.887373,-0.870373,10.82061
15.451,0.884349,-0.87425,10.82122
15.471,0.880461,-0.874757,10.82092
15.491,0.876236,-0.876407,10.82167
15.511,0.87029,-0.877436,10.82339
15.531,0.865768,-0.879879,10.82378
15.551,0.862588,-0.882108,10.82243
15.571,0.860607,-0.883939,10.82223
15.591,0.85892,-0.886217,10.82191
15.611,0.856445,-0.887736,10.82189
15.631,0.853476,-0.888857,10.8221
15.651,0.850225,-0.89041,10.82171
15.671,0.848022,-0.893387,10.82087
15.71,0.844518,-0.895654,10.82132
15.73,0.839687,-0.896175,10.82233
15.75,0.835552,-0.896173,10.82274
15.77,0.831711,-0.896231,10.82317
15.79,0.828785,-0.897673,10.8246
15.81,0.827548,-0.899291,10.82449
15.83,0.825988,-0.901016,10.82475
15.85,0.823913,-0.901461,10.82494
15.87,0.821206,-0.90126,10.8263
15.89,0.819373,-0.901846,10.82655
15.91,0.818812,-0.903594,10.82586
15.93,0.817644,-0.906225,10.82505
15.969,0.815244,-0.907472,10.82485
15.989,0.813028,-0.908608,10.8249
16.009,0.810914,-0.909611,10.82563
16.029,0.809754,-0.911254,10.82635
16.049,0.808963,-0.913154,10.82543
16.069,0.808856,-0.915356,10.82479
16.089,0.809587,-0.918106,10.82433
16.109,0.811148,-0.920378,10.82444
16.129,0.811849,-0.922478,10.8245
16.149,0.812724,-0.92546,10.82302
16.169,0.813442,-0.927578,10.82259
16.189,0.811364,-0.928132,10.82345
16.209,0.809046,-0.928735,10.82411
16.248,0.807751,-0.930363,10.82422
16.268,0.806702,-0.932366,10.82419
16.288,0.805694,-0.93461,10.82393
16.308,0.80442,-0.936616,10.8237
16.328,0.803328,-0.938226,10.82383
16.348,0.802146,-0.940159,10.82346
16.368,0.801006,-0.941907,10.82299
16.388,0.800127,-0.944031,10.82308
16.408,0.799296,-0.946013,10.8231
16.428,0.798157,-0.947421,10.82319
16.448,0.796808,-0.94862,10.82339
16.468,0.795942,-0.950054,10.82418
16.507,0.79471,-0.951579,10.82355
16.527,0.794037,-0.95318,10.82314
16.547,0.793584,-0.955767,10.8235
16.567,0.794293,-0.957692,10.82327
16.587,0.795202,-0.958648,10.82382
16.607,0.794458,-0.96071,10.82525
16.627,0.79411,-0.960499,10.82478
16.647,0.793858,-0.96162,10.82393
16.667,0.79464,-0.96443,10.82308
16.687,0.795292,-0.967569,10.82366
16.707,0.796049,-0.969766,10.8248
16.727,0.795011,-0.972606,10.82526
16.747,0.795052,-0.973895,10.82311
16.786,0.796163,-0.975813,10.82326
16.806,0.800764,-0.976457,10.8245
16.826,0.801907,-0.974688,10.82579
16.846,0.799869,-0.975766,10.82639
16.866,0.799602,-0.980553,10.82539
16.886,0.801067,-0.983996,10.82301
16.906,0.801943,-0.98823,10.82078
16.926,0.801835,-0.9914,10.82011
16.946,0.802175,-0.9934,10.81931
16.966,0.800815,-0.993611,10.81889
16.991,0.799091,-0.992801,10.8205
17.025,0.797136,-0.992302,10.82142
17.045,0.795181,-0.99017,10.82306
17.065,0.793989,-0.988746,10.82562
17.085,0.792672,-0.989373,10.82566
17.105,0.791395,-0.99177,10.82449
17.125,0.790704,-0.993386,10.82136
17.145,0.786348,-0.994325,10.82206
17.165,0.778199,-0.994591,10.82404
17.185,0.77509,-0.995812,10.82301
17.205,0.772566,-0.994679,10.82261
17.225,0.770554,-0.995667,10.82303
17.245,0.765043,-0.993954,10.82671
17.265,0.762228,-0.994662,10.8264
17.285,0.760657,-0.996155,10.82379
17.324,0.757329,-0.997989,10.82433
17.344,0.752233,-0.999494,10.8248
17.366,0.749026,-0.999549,10.8247
17.404,0.746968,-1.00213,10.8242
17.424,0.74481,-1.004404,10.82521
17.444,0.74261,-1.006504,10.82582
17.464,0.739986,-1.008318,10.82524
17.484,0.733689,-1.011825,10.8231
17.504,0.729808,-1.012322,10.82349
17.524,0.72605,-1.013965,10.82386
17.544,0.722929,-1.016491,10.8234
17.564,0.719471,-1.01927,10.82251
17.603,0.716846,-1.021941,10.82248
17.623,0.712831,-1.023249,10.8226
17.643,0.707132,-1.024514,10.82242
17.663,0.704618,-1.02464,10.82291
17.683,0.702104,-1.026822,10.82292
17.703,0.701202,-1.030226,10.82268
17.723,0.700171,-1.033481,10.82256
17.743,0.696949,-1.035115,10.82253
17.763,0.692306,-1.037556,10.82125
17.783,0.689268,-1.036002,10.82085
17.803,0.687436,-1.037621,10.82066
17.823,0.686324,-1.040503,10.8204
17.843,0.686174,-1.043307,10.82102
17.882,0.682264,-1.045248,10.82001
17.902,0.679459,-1.047302,10.81857
17.922,0.677566,-1.050038,10.81814
17.942,0.676857,-1.053362,10.81904
17.962,0.675848,-1.05519,10.82001
17.982,0.674551,-1.057042,10.82067
18.002,0.671909,-1.059438,10.82046
18.022,0.671223,-1.062192,10.82031
18.042,0.669687,-1.065775,10.81936
18.062,0.66928,-1.070154,10.81868
18.082,0.669284,-1.073376,10.81767
18.102,0.666495,-1.079108,10.81555
18.122,0.666866,-1.082486,10.81475
18.161,0.666049,-1.086261,10.81402
18.181,0.665518,-1.08961,10.81387
18.201,0.664223,-1.092035,10.81424
18.221,0.662366,-1.093883,10.81506
18.241,0.661282,-1.096121,10.81509
18.261,0.660738,-1.09944,10.81398
18.282,0.660525,-1.102542,10.81405
18.321,0.658778,-1.104623,10.81393
18.341,0.656655,-1.106874,10.81484
18.361,0.654808,-1.108881,10.81528
18.381,0.653663,-1.111683,10.81475
18.42,0.652417,-1.11276,10.81471
18.44,0.650552,-1.114762,10.81488
18.46,0.649377,-1.117446,10.8152
18.48,0.647072,-1.119566,10.81521
18.5,0.646884,-1.122077,10.81443
18.52,0.648515,-1.124803,10.81416
18.54,0.647999,-1.128052,10.81427
18.56,0.645344,-1.130177,10.81415
18.58,0.642841,-1.130998,10.81462
18.6,0.64158,-1.132159,10.81457
18.62,0.638891,-1.133162,10.81436
18.64,0.636919,-1.133618,10.81479
18.679,0.634407,-1.134277,10.81487
18.699,0.633828,-1.135335,10.81535
18.719,0.633404,-1.136275,10.81511
18.739,0.632326,-1.137301,10.81498
18.759,0.631181,-1.139071,10.81461
18.779,0.628765,-1.140253,10.81528
18.799,0.626851,-1.141603,10.81531
18.819,0.62591,-1.143204,10.8149
18.839,0.625006,-1.145244,10.81445
18.859,0.623678,-1.14739,10.81428
18.879,0.621673,-1.149455,10.81558
18.899,0.619738,-1.150594,10.81659
18.919,0.618398,-1.151637,10.81694
18.958,0.617841,-1.154127,10.81635
18.978,0.616781,-1.157138,10.81617
18.998,0.613919,-1.159352,10.81622
19.018,0.610179,-1.161267,10.81543
19.038,0.607796,-1.165452,10.81504
19.058,0.607575,-1.170737,10.80982
19.078,0.608217,-1.174663,10.81176
19.098,0.605403,-1.185981,10.81145
19.118,0.604087,-1.188123,10.80845
19.138,0.599343,-1.189584,10.80832
19.158,0.59507,-1.189763,10.80793
19.181,0.591631,-1.18907,10.80603
19.22,0.586384,-1.192896,10.808
19.257,0.583016,-1.195911,10.80734
19.277,0.579637,-1.198627,10.80727
19.297,0.575904,-1.202775,10.80644
19.317,0.575,-1.20503,10.80388
19.337,0.573484,-1.208605,10.80333
19.357,0.573968,-1.213319,10.80117
19.377,0.574466,-1.219271,10.80465
19.397,0.574235,-1.225803,10.80481
19.417,0.575284,-1.230468,10.80469
19.437,0.572714,-1.233674,10.80462
19.457,0.570128,-1.23658,10.80432
19.496,0.56616,-1.23983,10.80374
19.516,0.562672,-1.241552,10.80393
19.536,0.558297,-1.243037,10.80437
19.556,0.554793,-1.245183,10.80253
19.576,0.5522,-1.247647,10.79904
19.596,0.549446,-1.250144,10.79771
19.616,0.547694,-1.250811,10.79614
19.636,0.54873,-1.253111,10.79404
19.656,0.54996,-1.256649,10.78947
19.676,0.551512,-1.259125,10.78755
19.696,0.553792,-1.260797,10.78478
19.735,0.558115,-1.264904,10.78688
19.755,0.559491,-1.262126,10.79198
19.775,0.558222,-1.258916,10.79436
19.795,0.556648,-1.254712,10.7963
19.815,0.557553,-1.251328,10.79934
19.838,0.56042,-1.248898,10.79968
19.875,0.56618,-1.247696,10.79872
19.895,0.571166,-1.243789,10.79889
19.915,0.575842,-1.238792,10.79797
19.935,0.578308,-1.233477,10.7984
19.955,0.580814,-1.228083,10.7974
19.975,0.58488,-1.225199,10.79796
20.014,0.588894,-1.222161,10.7964
20.034,0.591078,-1.21917,10.79554
20.054,0.596833,-1.219365,10.79435
20.074,0.604988,-1.214297,10.79556
20.094,0.607771,-1.212775,10.79779
20.114,0.607097,-1.213554,10.79654
20.134,0.607684,-1.215242,10.79524
20.154,0.60979,-1.213805,10.79526
20.174,0.611954,-1.211399,10.79435
20.194,0.612907,-1.212586,10.79413
20.214,0.612645,-1.209465,10.79253
20.234,0.614788,-1.207554,10.7935
20.254,0.617175,-1.205602,10.7916
20.293,0.624009,-1.201555,10.79198
20.313,0.631716,-1.197934,10.79313
20.333,0.639465,-1.193626,10.79507
20.353,0.647205,-1.19004,10.79697
20.373,0.654624,-1.185722,10.79828
20.393,0.664333,-1.181521,10.79984
20.413,0.673338,-1.177819,10.8012
20.433,0.679534,-1.175186,10.80264
20.453,0.684215,-1.170647,10.80216
20.473,0.687904,-1.168618,10.80057
20.493,0.6942,-1.16538,10.80015
20.513,0.700338,-1.161736,10.80026
20.552,0.704106,-1.161211,10.79969
20.572,0.711502,-1.159663,10.80005
20.592,0.717645,-1.157576,10.79996
20.612,0.720943,-1.154191,10.80146
20.632,0.724194,-1.150838,10.80191
20.652,0.728032,-1.147898,10.80061
20.672,0.731229,-1.145969,10.79869
20.692,0.734959,-1.144588,10.79612
20.712,0.737636,-1.14044,10.79535
20.732,0.741275,-1.134255,10.79542
20.752,0.745923,-1.129568,10.79592
20.772,0.752776,-1.127486,10.79612
20.792,0.761323,-1.125496,10.79432
20.831,0.766493,-1.119091,10.79501
20.851,0.770221,-1.112538,10.79477
20.871,0.772983,-1.107459,10.79401
20.891,0.775889,-1.10288,10.7928
20.911,0.778328,-1.098798,10.79259
20.931,0.781767,-1.092283,10.79568
20.951,0.785095,-1.085583,10.79846
20.971,0.789186,-1.079576,10.79976
20.991,0.794208,-1.074221,10.80016
21.011,0.801777,-1.069014,10.80069
21.031,0.80986,-1.063476,10.80186
21.051,0.815111,-1.055789,10.8056
21.09,0.823126,-1.050576,10.80328
21.11,0.827364,-1.043399,10.80427
21.13,0.83324,-1.039794,10.80595
21.15,0.840082,-1.032964,10.80434
21.17,0.848431,-1.026319,10.80114
21.19,0.855547,-1.022502,10.79808
21.21,0.866242,-1.016531,10.79606
21.23,0.873379,-1.012142,10.79635
21.25,0.878505,-1.00356,10.79722
21.27,0.883768,-0.993484,10.7983
21.29,0.886755,-0.985153,10.79924
21.31,0.892316,-0.978942,10.79765
21.33,0.895977,-0.97177,10.79526
21.369,0.892257,-0.959721,10.79688
21.394,0.894779,-0.945554,10.79859
21.429,0.895445,-0.932103,10.79816
21.449,0.892353,-0.917623,10.79713
21.469,0.885766,-0.899531,10.79718
21.489,0.881638,-0.881999,10.7964
21.509,0.877895,-0.864742,10.79783
21.529,0.875035,-0.845327,10.80035
21.549,0.872149,-0.825671,10.80153
21.569,0.868037,-0.808967,10.80032
21.589,0.862237,-0.793609,10.79767
21.609,0.856258,-0.774485,10.79837
21.648,0.851906,-0.759334,10.79697
21.668,0.847135,-0.749283,10.79447
21.688,0.846781,-0.737672,10.79288
21.708,0.843396,-0.723448,10.79308
21.728,0.841556,-0.713255,10.79355
21.748,0.839493,-0.705282,10.79318
21.768,0.835825,-0.698925,10.7921
21.788,0.829087,-0.689788,10.79062
21.808,0.822123,-0.676833,10.79016
21.828,0.81573,-0.66641,10.79132
21.848,0.810094,-0.656435,10.79121
21.868,0.806662,-0.645705,10.79104
21.907,0.805322,-0.636005,10.7922
21.927,0.803415,-0.626856,10.79378
21.947,0.800452,-0.617717,10.79454
21.967,0.795989,-0.608516,10.79426
21.987,0.790322,-0.598164,10.79393
22.007,0.784107,-0.586016,10.79505
22.027,0.777002,-0.575338,10.7955
22.047,0.769875,-0.567874,10.79455
22.067,0.763742,-0.559387,10.79376
22.087,0.757948,-0.552409,10.79322
22.107,0.753932,-0.547613,10.7926
22.127,0.74803,-0.542031,10.79184
22.147,0.743668,-0.539234,10.79073
22.186,0.736621,-0.535871,10.78795
22.206,0.730015,-0.529615,10.78589
22.226,0.723066,-0.523087,10.78424
22.246,0.7157,-0.511254,10.78647
22.266,0.708911,-0.495643,10.79042
22.286,0.70251,-0.482021,10.79205
22.306,0.696096,-0.472625,10.79175
22.326,0.688245,-0.470991,10.79111
22.346,0.681312,-0.471122,10.78928
22.366,0.678401,-0.464518,10.78746
22.386,0.674783,-0.44871,10.78794
22.406,0.675203,-0.439346,10.78871
22.426,0.671187,-0.435244,10.78933
22.465,0.666696,-0.433909,10.78542
22.485,0.670545,-0.427529,10.7845
22.505,0.664925,-0.420281,10.78552
22.525,0.660721,-0.409906,10.78794
22.545,0.656565,-0.398551,10.79037
22.565,0.65141,-0.389686,10.79197
22.585,0.643826,-0.381832,10.79169
22.605,0.633179,-0.374866,10.79061
22.625,0.625861,-0.369285,10.78974
22.645,0.619987,-0.362135,10.78896
22.665,0.614853,-0.354039,10.78957
22.685,0.607244,-0.345879,10.79093
22.705,0.600047,-0.340313,10.791
22.744,0.594365,-0.332739,10.78921
22.764,0.58981,-0.321987,10.78864
22.784,0.584312,-0.310262,10.78903
22.804,0.578679,-0.299189,10.78906
22.824,0.571676,-0.284597,10.7908
22.844,0.565377,-0.272613,10.79121
22.864,0.558625,-0.260084,10.79103
22.884,0.553139,-0.246489,10.79142
22.904,0.548076,-0.235879,10.79149
22.924,0.542604,-0.229906,10.79105
22.944,0.53818,-0.224243,10.78996
22.964,0.532712,-0.213981,10.78969
22.984,0.527327,-0.202157,10.78942
23.023,0.52285,-0.194332,10.78818
23.043,0.517931,-0.185319,10.78733
23.063,0.513758,-0.165617,10.78767
23.083,0.510858,-0.14585,10.78972
23.103,0.506338,-0.12332,10.78884
23.123,0.502454,-0.115732,10.78784
23.143,0.499171,-0.118312,10.78835
23.163,0.496937,-0.114309,10.78671
23.183,0.492277,-0.113106,10.78675
23.203,0.486836,-0.118539,10.78715
23.223,0.482521,-0.113314,10.78566
23.243,0.478829,-0.10358,10.78683
23.263,0.473774,-0.096787,10.79097
23.302,0.470043,-0.097078,10.79195
23.322,0.467155,-0.098108,10.79247
23.342,0.463692,-0.10132,10.79228
23.362,0.460292,-0.103919,10.79163
23.382,0.456735,-0.108781,10.79032
23.402,0.454257,-0.108069,10.78898
23.422,0.451162,-0.111566,10.78876
23.442,0.449959,-0.108508,10.78953
23.462,0.447613,-0.103203,10.78954
23.482,0.444991,-0.099945,10.78995
23.502,0.442006,-0.098776,10.79021
23.522,0.438497,-0.099098,10.79026
23.547,0.435299,-0.098053,10.7905
23.581,0.433456,-0.094357,10.79149
23.601,0.432121,-0.09183,10.79181
23.621,0.43131,-0.092533,10.7927
23.641,0.430218,-0.093044,10.79387
23.661,0.428399,-0.091696,10.79448
23.681,0.425582,-0.092192,10.79356
23.701,0.42173,-0.094991,10.79273
23.721,0.418638,-0.098329,10.792
23.741,0.417027,-0.100519,10.79232
23.761,0.415565,-0.105808,10.79245
23.781,0.413565,-0.111625,10.7921
23.801,0.411494,-0.115487,10.79086
23.821,0.408858,-0.1163,10.79095
23.841,0.407528,-0.117312,10.79214
23.88,0.408478,-0.120331,10.79325
23.9,0.407418,-0.127131,10.79108
23.92,0.406314,-0.134248,10.78983
23.94,0.405115,-0.141464,10.78759
23.96,0.404214,-0.147673,10.78639
23.98,0.404,-0.152591,10.7872
24,0.403448,-0.15726,10.78884
24.02,0.402697,-0.160923,10.7905
24.04,0.401361,-0.163432,10.79132
24.06,0.400023,-0.164259,10.7922
24.08,0.398604,-0.164391,10.79357
24.1,0.396447,-0.165521,10.79412
24.12,0.393949,-0.16499,10.79441
24.14,0.392623,-0.167286,10.79436
24.179,0.390945,-0.171038,10.79488
24.199,0.388255,-0.174677,10.79509
24.219,0.386109,-0.179449,10.79482
24.239,0.383386,-0.186198,10.79362
24.259,0.378798,-0.191636,10.79172
24.279,0.374634,-0.193219,10.7914
24.299,0.370824,-0.195098,10.79177
24.319,0.36771,-0.197407,10.79264
24.339,0.36443,-0.200499,10.79262
24.359,0.361285,-0.203101,10.79214
24.379,0.358125,-0.20594,10.79172
24.399,0.355749,-0.208464,10.79222
24.419,0.354365,-0.210896,10.79353
24.458,0.352542,-0.21488,10.79335
24.478,0.349517,-0.219035,10.79224
24.498,0.345681,-0.223504,10.79081
24.518,0.341681,-0.226295,10.78981
24.538,0.338828,-0.227004,10.79014
24.558,0.336487,-0.227224,10.79154
24.578,0.334069,-0.228559,10.79247
24.598,0.331536,-0.231151,10.79216
24.618,0.328797,-0.234595,10.79091
24.638,0.327003,-0.237028,10.79035
24.658,0.326009,-0.238395,10.7915
24.678,0.32587,-0.239633,10.7934
24.698,0.325447,-0.241473,10.79434
24.737,0.324284,-0.243088,10.79328
24.757,0.323549,-0.242518,10.79302
24.777,0.323548,-0.241452,10.79417
24.797,0.323779,-0.241256,10.79573
24.817,0.324278,-0.243563,10.79634
24.837,0.32485,-0.246594,10.79606
24.857,0.325322,-0.250239,10.79529
24.877,0.325075,-0.254116,10.79408
24.897,0.324592,-0.257304,10.79323
24.917,0.324777,-0.257805,10.79423
24.937,0.326546,-0.256137,10.79697
24.957,0.328889,-0.255281,10.80058
24.977,0.331617,-0.256513,10.80102
25.016,0.334483,-0.258041,10.80148
25.036,0.33842,-0.25862,10.8045
25.056,0.341309,-0.258125,10.80747
25.076,0.341868,-0.257802,10.80833
25.096,0.341683,-0.258954,10.80699
25.116,0.340469,-0.260709,10.80631
25.136,0.339777,-0.259424,10.80634
25.156,0.339247,-0.258547,10.80779
25.176,0.338388,-0.257182,10.80833
25.196,0.337099,-0.256519,10.80758
25.216,0.335154,-0.255162,10.80638
25.236,0.333237,-0.252551,10.80642
25.256,0.331064,-0.249848,10.80726
25.276,0.329563,-0.247258,10.80724
25.315,0.328162,-0.244805,10.80692
25.335,0.327557,-0.243589,10.80737
25.357,0.328508,-0.242405,10.80862
25.395,0.330838,-0.240994,10.80996
25.415,0.333429,-0.242359,10.80956
25.435,0.336338,-0.245864,10.80893
25.455,0.338371,-0.24762,10.80899
25.475,0.339831,-0.24784,10.80888
25.495,0.34014,-0.247133,10.80855
25.515,0.340555,-0.246444,10.80798
25.535,0.342165,-0.245211,10.80904
25.555,0.344442,-0.244198,10.81059
25.594,0.34633,-0.244785,10.81014
25.614,0.347482,-0.244688,10.81022
25.634,0.348475,-0.244302,10.81062
25.655,0.349918,-0.245202,10.81057
25.694,0.351442,-0.246642,10.81079
25.714,0.352584,-0.249708,10.80948
25.738,0.354305,-0.250404,10.80991
25.777,0.355902,-0.249783,10.81117
25.814,0.355949,-0.249964,10.81097
25.834,0.355555,-0.248872,10.81122
25.873,0.354873,-0.248284,10.81081
25.893,0.353502,-0.245044,10.81061
25.913,0.352656,-0.240708,10.81125
25.933,0.35247,-0.237519,10.81165
25.953,0.352407,-0.235365,10.81126
25.973,0.352718,-0.232608,10.81178
25.993,0.35377,-0.229251,10.81313
26.013,0.355308,-0.227913,10.81441
26.033,0.356468,-0.228223,10.81504
26.053,0.357209,-0.227599,10.81537
26.073,0.357782,-0.225574,10.81509
26.093,0.357915,-0.224127,10.81445
26.113,0.358474,-0.224251,10.81348
26.152,0.360057,-0.223047,10.81489
26.172,0.361981,-0.221979,10.81595
26.192,0.364279,-0.220949,10.81691
26.212,0.366423,-0.220681,10.81784
26.232,0.369415,-0.222165,10.81795
26.252,0.37178,-0.224957,10.81789
26.272,0.373244,-0.22599,10.81814
26.292,0.374583,-0.226006,10.81905
26.312,0.376101,-0.225983,10.81979
26.332,0.377958,-0.226876,10.81975
26.352,0.378127,-0.228243,10.81905
26.372,0.377497,-0.22942,10.81866
26.392,0.376695,-0.228752,10.81823
26.431,0.376994,-0.228279,10.81834
26.451,0.377582,-0.228742,10.8181
26.471,0.378067,-0.229902,10.8174
26.491,0.379602,-0.229835,10.81639
26.511,0.380691,-0.227689,10.81818
26.531,0.383511,-0.227632,10.81968
26.551,0.386711,-0.229692,10.82088
26.571,0.389068,-0.232601,10.82104
26.591,0.390381,-0.236031,10.81977
26.611,0.391315,-0.238374,10.81868
26.631,0.393564,-0.237285,10.82049
26.651,0.396713,-0.237125,10.82308
26.671,0.400168,-0.239401,10.82337
26.71,0.400821,-0.241842,10.82165
26.73,0.402435,-0.241239,10.82298
26.75,0.40583,-0.239836,10.82667
26.77,0.409037,-0.240342,10.82769
26.79,0.41027,-0.241773,10.82649
26.81,0.409541,-0.242957,10.82449
26.83,0.409047,-0.244839,10.82303
26.85,0.409688,-0.24769,10.82296
26.87,0.410891,-0.251096,10.82343
26.89,0.411532,-0.25355,10.82355
26.91,0.412267,-0.255261,10.82311
26.93,0.413331,-0.256049,10.82382
26.95,0.415616,-0.257843,10.82539
26.989,0.416797,-0.260437,10.825
27.009,0.417226,-0.262575,10.82423
27.029,0.417021,-0.264058,10.82353
27.049,0.417036,-0.2641,10.82373
27.069,0.417083,-0.263411,10.82492
27.089,0.417345,-0.263492,10.82521
27.109,0.417463,-0.264155,10.82451
27.129,0.417842,-0.265521,10.82367
27.149,0.418727,-0.267147,10.82385
27.169,0.420977,-0.268282,10.82486
27.209,0.423101,-0.269625,10.82506
27.229,0.424783,-0.271155,10.82541
27.268,0.425405,-0.271746,10.82444
27.288,0.425139,-0.270116,10.82367
27.308,0.425229,-0.267894,10.82486
27.328,0.425993,-0.266211,10.82652
27.348,0.426456,-0.265346,10.82649
27.368,0.426533,-0.265313,10.82646
27.388,0.426088,-0.264168,10.82625
27.408,0.426158,-0.26241,10.82658
27.428,0.426553,-0.260494,10.82659
27.448,0.426938,-0.258989,10.82739
27.468,0.427058,-0.257726,10.82793
27.488,0.427816,-0.257625,10.82842
27.508,0.42837,-0.257905,10.82855
27.547,0.427858,-0.25714,10.82781
27.567,0.427342,-0.256035,10.82745
27.587,0.427483,-0.254456,10.82782
27.607,0.428124,-0.253193,10.82815
27.627,0.428867,-0.25174,10.8284
27.647,0.429909,-0.249637,10.82896
27.667,0.431187,-0.247329,10.82994
27.687,0.432965,-0.245713,10.83073
27.707,0.434299,-0.245426,10.83109
27.727,0.434951,-0.244989,10.83086
27.747,0.435877,-0.244308,10.83061
27.767,0.437406,-0.243682,10.83143
27.787,0.439252,-0.242782,10.83231
27.826,0.440559,-0.242005,10.83229
27.846,0.441607,-0.241056,10.83216
27.866,0.44241,-0.240012,10.83199
27.886,0.443165,-0.238539,10.832
27.906,0.444006,-0.236298,10.83244
27.926,0.444894,-0.23404,10.83301
27.948,0.445845,-0.232415,10.83326
27.986,0.446932,-0.230865,10.83328
28.006,0.448088,-0.228923,10.83359
28.026,0.449321,-0.227031,10.83411
28.046,0.450261,-0.225496,10.83417
28.066,0.451122,-0.224233,10.83399
28.105,0.45223,-0.222877,10.8342
28.125,0.453458,-0.221462,10.83465
28.145,0.454879,-0.220029,10.8351
28.165,0.456147,-0.218586,10.83549
28.185,0.457191,-0.217315,10.83539
28.205,0.457967,-0.21596,10.83539
28.225,0.458819,-0.214784,10.83548
28.245,0.459785,-0.213565,10.83572
28.265,0.461117,-0.212189,10.83636
28.285,0.462625,-0.211023,10.83694
28.305,0.46367,-0.209855,10.83692
28.325,0.464334,-0.208596,10.83673
28.345,0.464885,-0.206838,10.83679
28.384,0.465759,-0.204072,10.83774
28.404,0.466376,-0.201907,10.83826
28.428,0.466514,-0.200693,10.83784
28.464,0.466745,-0.20024,10.83766
28.484,0.467584,-0.200211,10.83765
28.504,0.468798,-0.199956,10.8378
28.524,0.470129,-0.199196,10.83815
28.544,0.471612,-0.198111,10.83863
28.564,0.472848,-0.197023,10.83905
28.584,0.473621,-0.195709,10.83917
28.604,0.47395,-0.194258,10.83907
28.624,0.473972,-0.192613,10.83889
28.663,0.474539,-0.191239,10.83922
28.683,0.475089,-0.190316,10.83907
28.703,0.475615,-0.188906,10.83915
28.723,0.476237,-0.187391,10.8393
28.743,0.476891,-0.185915,10.83936
28.763,0.477451,-0.184516,10.83934
28.783,0.478057,-0.18306,10.83934
28.803,0.478946,-0.181532,10.83969
28.823,0.48009,-0.179891,10.8403
28.843,0.481174,-0.178439,10.84037
28.863,0.482003,-0.177364,10.84015
28.883,0.482696,-0.176514,10.83975
28.903,0.483532,-0.175079,10.83973
28.942,0.485064,-0.172766,10.84061
28.962,0.486674,-0.171298,10.84073
28.982,0.488113,-0.170024,10.84051
29.002,0.489679,-0.168413,10.84058
29.022,0.491054,-0.16662,10.84091
29.042,0.492416,-0.164826,10.84124
29.062,0.493753,-0.163445,10.84111
29.082,0.495715,-0.162343,10.84089
29.102,0.498267,-0.161784,10.84068
29.122,0.501529,-0.161507,10.84097
29.142,0.504373,-0.160559,10.84194
29.162,0.506171,-0.159236,10.84217
29.182,0.508033,-0.158668,10.84221
29.221,0.517591,-0.164631,10.85028
29.241,0.522988,-0.178836,10.86109
29.261,0.518235,-0.177993,10.89737
29.281,0.515985,-0.140943,10.98128
29.301,0.521422,-0.104884,11.09288
29.321,0.528881,-0.069487,11.21284
29.341,0.540904,-0.02252,11.30876
29.361,0.55969,0.039696,11.35217
29.381,0.56822,0.113363,11.32474
29.401,0.560735,0.184487,11.24251
29.421,0.552416,0.24021,11.12386
29.441,0.552854,0.260568,10.97691
29.461,0.553274,0.253264,10.80883
29.5,0.550902,0.253623,10.66819
29.52,0.551529,0.248787,10.53794
29.54,0.556647,0.229946,10.41634
29.56,0.563156,0.201532,10.30337
29.58,0.571674,0.166649,10.2073
29.6,0.57903,0.131076,10.13238
29.62,0.583688,0.094019,10.07048
29.64,0.587933,0.053881,10.02072
29.66,0.591262,0.012147,9.983997
29.68,0.592442,-0.021942,9.966687
29.7,0.59094,-0.047976,9.964108
29.72,0.586931,-0.069987,9.964113
29.74,0.58327,-0.090616,9.972834
29.779,0.578954,-0.107235,9.989266
29.799,0.574002,-0.121181,10.00804
29.819,0.569088,-0.132368,10.03203
29.839,0.56431,-0.144089,10.05615
29.859,0.560266,-0.154973,10.08104
29.879,0.556691,-0.163723,10.1088
29.899,0.55336,-0.172348,10.13564
29.919,0.550552,-0.183839,10.15767
29.939,0.54795,-0.196746,10.17403
29.959,0.54584,-0.208561,10.18857
29.979,0.543771,-0.218358,10.20207
29.999,0.54125,-0.227208,10.21417
30.019,0.539041,-0.236737,10.22314
30.039,0.536619,-0.245304,10.22879
30.078,0.533621,-0.25035,10.23354
30.098,0.531215,-0.25509,10.24053
30.118,0.529556,-0.262711,10.24442
30.141,0.527823,-0.271503,10.24574
30.178,0.525342,-0.279677,10.24757
30.198,0.522542,-0.286354,10.24964
30.218,0.520234,-0.291046,10.25534
30.238,0.518442,-0.295455,10.26233
30.258,0.516568,-0.299424,10.26912
30.278,0.513366,-0.302279,10.27424
30.298,0.509851,-0.30405,10.27919
30.318,0.507344,-0.306129,10.2859
30.357,0.505816,-0.308993,10.29407
30.377,0.503991,-0.312368,10.30117
30.397,0.502281,-0.315245,10.3087
30.417,0.501069,-0.318583,10.31582
30.437,0.500969,-0.323326,10.32364
30.457,0.501138,-0.328545,10.33068
30.477,0.500558,-0.332211,10.33719
30.497,0.499666,-0.335917,10.34218
30.517,0.498746,-0.339935,10.34729
30.537,0.498145,-0.343357,10.35343
30.557,0.497815,-0.346596,10.35981
30.577,0.497446,-0.349473,10.36596
30.597,0.496911,-0.352052,10.37141
30.636,0.496083,-0.354605,10.37469
30.656,0.495595,-0.357515,10.37718
30.676,0.495882,-0.36103,10.38151
30.696,0.495968,-0.364263,10.38604
30.716,0.495263,-0.366425,10.3895
30.736,0.494562,-0.36858,10.39336
30.756,0.494448,-0.370437,10.39867
30.776,0.494671,-0.372101,10.40527
30.796,0.494838,-0.374567,10.41081
30.816,0.494708,-0.376278,10.41537
30.836,0.494556,-0.376675,10.4207
30.856,0.494319,-0.377251,10.42592
30.877,0.494184,-0.378723,10.43024
30.915,0.493996,-0.380221,10.43414
30.935,0.493609,-0.381173,10.43746
30.955,0.492941,-0.38174,10.4401
30.975,0.492177,-0.38266,10.44258
30.995,0.491593,-0.384161,10.44461
31.015,0.491263,-0.385496,10.44689
31.035,0.490995,-0.3863,10.44988
31.055,0.490745,-0.386824,10.45352
31.075,0.490488,-0.387289,10.45761
31.095,0.490158,-0.387722,10.4614
31.115,0.489702,-0.387883,10.46487
31.135,0.489293,-0.387617,10.46934
31.155,0.489186,-0.387948,10.47361
31.194,0.489004,-0.387593,10.47766
31.214,0.488846,-0.387255,10.4819
31.234,0.488652,-0.387336,10.48578
31.254,0.488304,-0.387701,10.48853
31.274,0.487788,-0.388088,10.49066
31.294,0.487621,-0.388599,10.49348
31.314,0.487704,-0.388952,10.49737
31.334,0.487663,-0.38953,10.50051
31.354,0.48738,-0.390316,10.50243
31.374,0.486896,-0.390579,10.50466
31.394,0.486444,-0.390115,10.50798
31.414,0.48587,-0.389232,10.51139
31.434,0.485567,-0.388606,10.5153
31.473,0.485237,-0.388553,10.51847
31.493,0.484779,-0.388071,10.52198
31.513,0.484389,-0.387239,10.52546
31.533,0.48395,-0.387072,10.52804
31.553,0.483292,-0.38733,10.52949
31.573,0.482801,-0.387634,10.53115
31.593,0.482711,-0.388019,10.53349
31.613,0.482402,-0.388197,10.53592
31.633,0.481903,-0.388183,10.53805
31.653,0.481378,-0.388016,10.5408
31.673,0.48111,-0.387792,10.54418
31.693,0.481146,-0.387898,10.54781
31.713,0.481111,-0.388503,10.55048
31.752,0.480049,-0.388315,10.55183
31.772,0.479334,-0.387943,10.55381
31.792,0.478998,-0.388127,10.55641
31.812,0.478726,-0.388366,10.55878
31.832,0.478227,-0.388158,10.56082
31.852,0.477412,-0.387646,10.56231
31.872,0.476815,-0.387331,10.56414
31.892,0.47649,-0.387165,10.5671
31.912,0.476627,-0.386754,10.57065
31.932,0.476805,-0.386425,10.57418
31.952,0.476551,-0.38621,10.5766
31.972,0.476428,-0.386074,10.57828
31.992,0.476605,-0.386401,10.58036
32.031,0.476652,-0.386407,10.58293
32.051,0.476509,-0.386087,10.58533
32.071,0.476151,-0.385574,10.58705
32.091,0.475787,-0.385,10.58889
32.111,0.475755,-0.385142,10.59076
32.131,0.475556,-0.384983,10.59281
32.151,0.475291,-0.384707,10.59465
32.171,0.47496,-0.384307,10.59648
32.191,0.474731,-0.38428,10.59832
32.211,0.474908,-0.384623,10.60046
32.231,0.474972,-0.384847,10.60227
32.251,0.474685,-0.384389,10.60368
32.271,0.474552,-0.383946,10.60557
32.294,0.474524,-0.383631,10.608
32.33,0.474437,-0.383907,10.60943
32.35,0.474286,-0.383966,10.61061
32.37,0.474056,-0.383623,10.61215
32.391,0.473796,-0.383192,10.61392
32.43,0.473842,-0.383436,10.61571
32.45,0.473635,-0.383535,10.61687
32.47,0.473364,-0.383352,10.61784
32.49,0.473114,-0.382938,10.61907
32.51,0.473258,-0.382798,10.62104
32.53,0.473235,-0.382859,10.62294
32.55,0.473096,-0.382353,10.62501
32.589,0.473022,-0.382168,10.62631
32.609,0.472776,-0.381837,10.62758
32.629,0.472582,-0.38135,10.62948
32.649,0.472687,-0.381112,10.63148
32.669,0.472932,-0.381169,10.63363
32.689,0.472966,-0.381439,10.63525
32.709,0.472982,-0.381233,10.63701
32.729,0.473073,-0.380642,10.63922
32.749,0.47305,-0.379825,10.64112
32.769,0.472971,-0.379234,10.64247
32.789,0.472974,-0.37881,10.64345
32.809,0.473039,-0.378608,10.64403
32.829,0.473073,-0.37836,10.64502
32.868,0.473237,-0.37819,10.64652
32.888,0.473473,-0.377917,10.64838
32.908,0.473777,-0.377646,10.65002
32.928,0.473981,-0.377462,10.65188
32.948,0.473858,-0.377167,10.65334
32.968,0.473663,-0.376689,10.65496
32.988,0.473743,-0.376352,10.65666
33.008,0.47397,-0.376157,10.65847
33.028,0.473964,-0.375972,10.65978
33.048,0.473673,-0.375587,10.66067
33.068,0.473419,-0.374913,10.66177
33.088,0.473324,-0.374353,10.66314
33.108,0.473259,-0.374014,10.66474
33.147,0.473478,-0.374202,10.66652
33.167,0.473491,-0.373956,10.66783
33.187,0.473331,-0.373263,10.66896
33.207,0.473154,-0.372396,10.67027
33.227,0.473186,-0.3719,10.67155
33.247,0.4732,-0.371906,10.6724
33.267,0.473208,-0.37193,10.67305
33.287,0.473311,-0.372024,10.67365
33.307,0.473129,-0.371985,10.67377
33.327,0.472949,-0.371394,10.67468
33.347,0.473057,-0.370579,10.67648
33.367,0.473418,-0.37032,10.67799
33.406,0.473378,-0.369748,10.67924
33.426,0.473515,-0.369406,10.68052
33.446,0.473761,-0.368868,10.68211
33.466,0.473954,-0.368324,10.68367
33.486,0.473907,-0.367904,10.68494
33.506,0.47374,-0.367342,10.68583
33.526,0.473561,-0.36674,10.68655
33.546,0.473412,-0.365928,10.68768
33.566,0.473454,-0.365547,10.68893
33.586,0.473542,-0.365007,10.69015
33.606,0.473698,-0.36453,10.69147
33.626,0.473641,-0.364376,10.69201
33.646,0.473562,-0.364291,10.69244
33.666,0.47374,-0.364197,10.69383
33.705,0.473752,-0.363362,10.69515
33.725,0.473685,-0.362156,10.6966
33.745,0.473742,-0.361198,10.69833
33.765,0.473856,-0.360718,10.69952
33.785,0.474003,-0.360175,10.70081
33.805,0.473992,-0.359635,10.70192
33.825,0.473958,-0.359181,10.70268
33.845,0.473942,-0.358664,10.70327
33.865,0.474071,-0.35833,10.70384
33.885,0.474227,-0.358186,10.7044
33.905,0.474326,-0.35788,10.70523
33.925,0.474442,-0.35752,10.70618
33.945,0.474502,-0.356725,10.70745
33.984,0.474772,-0.356273,10.70876
34.004,0.475008,-0.355848,10.70987
34.024,0.475193,-0.355418,10.71085
34.044,0.475179,-0.354862,10.71174
34.064,0.47527,-0.354461,10.71246
34.084,0.475409,-0.354166,10.71305
34.104,0.475439,-0.353913,10.71333
34.124,0.475376,-0.353217,10.71402
34.144,0.475444,-0.352605,10.71478
34.164,0.475516,-0.352201,10.71566
34.184,0.47573,-0.351941,10.71704
34.204,0.475931,-0.351589,10.71847
34.224,0.47596,-0.350691,10.71979
34.244,0.475891,-0.349814,10.72095
34.283,0.476032,-0.349299,10.72227
34.303,0.476129,-0.348904,10.72334
34.323,0.476066,-0.34824,10.72425
34.343,0.475997,-0.347595,10.7251
34.363,0.476126,-0.347224,10.72602
34.383,0.47627,-0.347001,10.72678
34.403,0.476287,-0.346764,10.72714
34.423,0.476266,-0.346237,10.72796
34.443,0.47633,-0.345683,10.72897
34.465,0.476404,-0.345216,10.72996
34.503,0.47652,-0.34485,10.7308
34.523,0.476488,-0.344396,10.73137
34.562,0.476551,-0.344299,10.7319
34.582,0.47654,-0.344097,10.73241
34.602,0.476603,-0.343753,10.73298
34.622,0.476691,-0.34312,10.73392
34.642,0.476654,-0.342699,10.73463
34.662,0.476602,-0.34234,10.73512
34.682,0.476643,-0.342117,10.73577
34.702,0.476704,-0.341829,10.73646
34.722,0.476621,-0.34115,10.73732
34.742,0.476822,-0.340629,10.7385
34.762,0.476929,-0.340325,10.73946
34.782,0.476799,-0.34006,10.73979
34.802,0.476696,-0.339759,10.74003
34.841,0.476588,-0.339204,10.74079
34.861,0.476486,-0.338623,10.74142
34.881,0.476567,-0.338081,10.7424
34.901,0.476862,-0.337869,10.74358
34.921,0.477145,-0.337644,10.74467
34.941,0.477205,-0.337188,10.74522
34.961,0.477264,-0.336447,10.74606
34.981,0.477353,-0.335681,10.74719
35.001,0.477432,-0.33504,10.74794
35.021,0.47746,-0.334546,10.74855
35.041,0.477498,-0.334097,10.74928
35.061,0.47751,-0.333672,10.75008
35.081,0.477638,-0.333228,10.75084
35.12,0.47775,-0.33317,10.75147
35.14,0.477658,-0.332892,10.75192
35.16,0.477506,-0.332418,10.75259
35.18,0.47747,-0.331905,10.75337
35.2,0.477562,-0.331527,10.75408
35.22,0.477441,-0.331131,10.75432
35.24,0.477286,-0.330792,10.75455
35.26,0.477259,-0.330484,10.75498
35.28,0.477459,-0.330274,10.75569
35.3,0.477501,-0.330031,10.75628
35.32,0.477372,-0.329713,10.75629
35.34,0.477355,-0.329507,10.75636
35.36,0.477446,-0.329296,10.75667
35.38,0.477493,-0.329031,10.75725
35.419,0.477549,-0.328698,10.75796
35.439,0.477595,-0.328346,10.75841
35.459,0.477588,-0.327901,10.75906
35.479,0.47761,-0.327444,10.75969
35.499,0.477752,-0.327221,10.76028
35.519,0.477793,-0.326768,10.76076
35.539,0.477786,-0.326276,10.76125
35.559,0.477788,-0.325855,10.76198
35.579,0.477819,-0.325577,10.76254
35.599,0.477811,-0.32516,10.76318
35.619,0.477875,-0.324677,10.76401
35.639,0.477863,-0.324136,10.76515
35.659,0.47777,-0.32345,10.76586
35.698,0.477696,-0.322473,10.76668
35.718,0.477651,-0.322068,10.76701
35.738,0.477686,-0.322118,10.76713
35.758,0.477835,-0.322008,10.76786
35.778,0.478077,-0.321786,10.76855
35.798,0.478102,-0.321366,10.76915
35.818,0.478047,-0.320751,10.76974
35.838,0.478175,-0.320514,10.77044
35.858,0.478289,-0.320304,10.77127
35.878,0.478369,-0.320161,10.7722
35.898,0.478477,-0.319908,10.77317
35.918,0.47852,-0.319649,10.77367
35.938,0.478335,-0.319404,10.77379
35.977,0.478011,-0.319129,10.77403
35.997,0.477697,-0.318913,10.77442
36.017,0.477463,-0.318594,10.77483
36.037,0.477318,-0.318265,10.77527
36.057,0.477192,-0.318091,10.77542
36.077,0.477163,-0.318105,10.77564
36.097,0.477226,-0.318061,10.77598
36.117,0.477261,-0.317921,10.77642
36.137,0.477204,-0.317801,10.77683
36.157,0.477208,-0.317587,10.77724
36.177,0.477202,-0.317367,10.7777
36.197,0.477109,-0.316938,10.77834
36.217,0.476985,-0.316557,10.77889
36.256,0.476943,-0.316423,10.77941
36.276,0.476974,-0.316378,10.77993
36.296,0.476932,-0.316314,10.78015
36.316,0.476741,-0.3161,10.78037
36.336,0.476438,-0.3157,10.78057
36.356,0.476177,-0.315152,10.78096
36.376,0.475921,-0.314624,10.78136
36.396,0.475917,-0.314087,10.78231
36.416,0.475981,-0.313632,10.7829
36.436,0.475798,-0.31308,10.78339
36.456,0.475589,-0.31255,10.7838
36.476,0.475564,-0.311916,10.78463
36.496,0.475606,-0.311544,10.78546
36.535,0.475407,-0.311204,10.78581
36.555,0.4752,-0.310946,10.78615
36.575,0.475109,-0.310683,10.7867
36.595,0.475036,-0.310366,10.78735
36.615,0.474963,-0.309909,10.78816
36.64,0.474869,-0.309217,10.78914
36.675,0.47458,-0.308954,10.78964
36.695,0.474205,-0.30879,10.78991
36.715,0.47379,-0.308444,10.7904
36.735,0.473456,-0.307851,10.79103
36.774,0.473198,-0.307539,10.79125
36.794,0.472813,-0.307265,10.7911
36.814,0.472504,-0.307118,10.79086
36.834,0.472213,-0.306882,10.7905
36.854,0.471958,-0.306641,10.79041
36.874,0.471712,-0.306443,10.79022
36.894,0.471537,-0.306258,10.79016
36.914,0.471529,-0.306109,10.79057
36.934,0.471512,-0.30586,10.79093
36.954,0.471451,-0.305725,10.79107
36.974,0.471226,-0.305424,10.7914
36.994,0.47097,-0.30493,10.79183
37.014,0.47082,-0.304609,10.79244
37.034,0.470679,-0.304189,10.79311
37.054,0.470374,-0.303695,10.79338
37.093,0.470048,-0.303184,10.79366
37.113,0.469568,-0.302764,10.79365
37.133,0.469033,-0.302521,10.79366
37.153,0.468573,-0.302121,10.79401
37.173,0.468174,-0.301694,10.79468
37.193,0.467797,-0.301332,10.79535
37.213,0.467572,-0.301194,10.79606
37.233,0.467528,-0.301195,10.79666
37.253,0.467325,-0.301051,10.797
37.273,0.467029,-0.300636,10.79757
37.293,0.466755,-0.300171,10.79818
37.313,0.466447,-0.300169,10.79829
37.333,0.46591,-0.299989,10.79843
37.372,0.46548,-0.299442,10.7988
37.392,0.465086,-0.298897,10.79941
37.412,0.46471,-0.298377,10.7999
37.432,0.464364,-0.297899,10.80036
37.452,0.464092,-0.29736,10.80084
37.472,0.463902,-0.296755,10.80143
37.492,0.463737,-0.29618,10.802
37.512,0.463522,-0.295567,10.80263
37.532,0.463388,-0.295292,10.80317
37.552,0.46325,-0.294717,10.80376
37.572,0.463058,-0.293895,10.80443
37.592,0.462812,-0.293127,10.80497
37.612,0.462524,-0.292677,10.80509
37.651,0.462216,-0.292439,10.80492
37.671,0.461879,-0.292066,10.80464
37.691,0.461572,-0.291762,10.80439
37.711,0.461241,-0.291352,10.80445
37.731,0.460966,-0.290972,10.80458
37.751,0.460796,-0.290566,10.80503
37.771,0.460618,-0.289993,10.80578
37.791,0.460328,-0.289417,10.80659
37.811,0.459951,-0.288943,10.80728
37.831,0.459549,-0.288398,10.808
37.851,0.459324,-0.287939,10.80871
37.871,0.459141,-0.287554,10.80942
37.891,0.458772,-0.287264,10.80984
37.93,0.458166,-0.286821,10.80967
37.95,0.457486,-0.286097,10.80967
37.97,0.456903,-0.28532,10.80978
37.99,0.456213,-0.284777,10.80945
38.01,0.45552,-0.284324,10.80925
38.03,0.455094,-0.284077,10.80913
38.05,0.454844,-0.283865,10.80895
38.07,0.454669,-0.283438,10.80894
38.09,0.454396,-0.282959,10.80906
38.11,0.453986,-0.282481,10.80927
38.13,0.453647,-0.282082,10.80944
38.15,0.453339,-0.281733,10.80987
38.17,0.452969,-0.281249,10.8104
38.19,0.452472,-0.280554,10.81081
38.229,0.452162,-0.279681,10.8112
38.249,0.451819,-0.278903,10.81158
38.269,0.451234,-0.278259,10.81165
38.289,0.450481,-0.277692,10.81181
38.309,0.449745,-0.27742,10.81185
38.329,0.449188,-0.277063,10.81217
38.349,0.448565,-0.276572,10.81246
38.369,0.448043,-0.276039,10.81297
38.389,0.447477,-0.275535,10.81351
38.409,0.44682,-0.274973,10.81418
38.429,0.446227,-0.27444,10.81484
38.449,0.445643,-0.27385,10.8155
38.488,0.445076,-0.273025,10.81601
38.508,0.444643,-0.272024,10.81671
38.528,0.444458,-0.271365,10.81744
38.548,0.444192,-0.271078,10.81787
38.568,0.443778,-0.270824,10.81779
38.588,0.443303,-0.270213,10.81784
38.608,0.442952,-0.269668,10.81804
38.628,0.442623,-0.269258,10.81814
38.648,0.442167,-0.268743,10.81817
38.668,0.441708,-0.268187,10.81834
38.688,0.441402,-0.267628,10.81868
38.708,0.441097,-0.266958,10.81939
38.728,0.440776,-0.266094,10.82034
38.767,0.440542,-0.265226,10.82113
38.787,0.440333,-0.26435,10.82158
38.809,0.440191,-0.26353,10.82188
38.847,0.439946,-0.263349,10.82192
38.867,0.439588,-0.263349,10.8215
38.887,0.439304,-0.263074,10.82129
38.907,0.439078,-0.262636,10.821
38.927,0.438629,-0.262194,10.82058
38.947,0.43801,-0.261891,10.82007
38.967,0.437485,-0.261784,10.82001
38.987,0.437247,-0.261629,10.82071
39.007,0.437012,-0.261256,10.82197
39.046,0.436146,-0.261035,10.82298
39.066,0.435259,-0.260408,10.82413
39.086,0.434288,-0.259782,10.82522
39.106,0.433175,-0.259159,10.826
39.126,0.432038,-0.25886,10.82644
39.146,0.43097,-0.259073,10.82625
39.166,0.429923,-0.259108,10.8258
39.186,0.429278,-0.258983,10.82536
39.206,0.429149,-0.259075,10.8245
39.226,0.429656,-0.259389,10.82295
39.246,0.431367,-0.260012,10.8191
39.266,0.433886,-0.262737,10.80671
39.286,0.435903,-0.26802,10.77819
39.325,0.434631,-0.2753,10.71627
39.345,0.431947,-0.283121,10.63793
39.365,0.430379,-0.287833,10.5527
39.385,0.432009,-0.282754,10.48628
39.405,0.438319,-0.264321,10.47226
39.425,0.4502,-0.240596,10.50982
39.445,0.466098,-0.219856,10.57809
39.465,0.480523,-0.202401,10.65568
39.485,0.489733,-0.182315,10.74555
39.505,0.494873,-0.161829,10.83817
39.525,0.498881,-0.144319,10.92012
39.545,0.502729,-0.131533,10.98276
39.565,0.508377,-0.117222,11.06081
39.604,0.514471,-0.131605,11.02996
39.624,0.519466,-0.13203,11.02705
39.644,0.521347,-0.12628,11.01385
39.664,0.522677,-0.114862,11.00972
39.684,0.524057,-0.102429,11.00672
39.704,0.525395,-0.091143,10.99959
39.724,0.527469,-0.080836,10.99488
39.744,0.529861,-0.070832,10.99267
39.764,0.532307,-0.060439,10.99031
39.784,0.535523,-0.050482,10.98574
39.804,0.539639,-0.041218,10.98175
39.824,0.544252,-0.03268,10.97949
39.844,0.548242,-0.024623,10.97763
39.883,0.551399,-0.015789,10.97474
39.903,0.554638,-0.006303,10.97198
39.923,0.55714,0.003223,10.96825
39.943,0.559112,0.012859,10.96485
39.963,0.561111,0.021546,10.96139
39.983,0.564233,0.029427,10.9592
40.003,0.568309,0.036791,10.95767
40.023,0.571669,0.044746,10.95493
40.043,0.574274,0.054181,10.95199
40.063,0.576375,0.064035,10.94854
40.083,0.5788,0.07353,10.94558
40.103,0.581644,0.082791,10.943
40.123,0.584846,0.092101,10.94106
40.162,0.587458,0.101581,10.93845
40.182,0.590213,0.11056,10.93559
40.202,0.593322,0.119532,10.93314
40.222,0.596226,0.129175,10.93042
40.242,0.598906,0.139504,10.92782
40.262,0.601536,0.149734,10.92526
40.282,0.60414,0.159762,10.92245
40.302,0.6069,0.169918,10.91992
40.322,0.609513,0.179964,10.91727
40.342,0.612063,0.190025,10.91469
40.362,0.614946,0.199826,10.91267
40.382,0.617954,0.209165,10.91056
40.402,0.620767,0.219216,10.90819
40.441,0.623024,0.229783,10.90551
40.461,0.625444,0.240126,10.9031
40.481,0.628237,0.250131,10.90117
40.501,0.631263,0.259706,10.89955
40.521,0.634019,0.269437,10.8975
40.541,0.636359,0.279583,10.89516
40.561,0.638722,0.28999,10.89278
40.581,0.64097,0.300879,10.8905
40.601,0.642995,0.311974,10.88806
40.621,0.644958,0.322823,10.8857
40.641,0.647087,0.333133,10.8836
40.661,0.649595,0.343045,10.882
40.681,0.652114,0.352733,10.88043
40.72,0.654021,0.363152,10.87806
40.74,0.656059,0.373678,10.87601
40.76,0.658533,0.384185,10.87454
40.78,0.660999,0.394267,10.87272
40.8,0.663288,0.404658,10.87085
40.82,0.665447,0.415421,10.86863
40.84,0.667556,0.426431,10.86664
40.86,0.669858,0.436829,10.8646
40.88,0.672552,0.447139,10.86329
40.9,0.675105,0.457166,10.86147
40.92,0.677361,0.467625,10.85956
40.94,0.67941,0.478617,10.85748
40.965,0.681507,0.4894,10.85559
40.999,0.684035,0.499686,10.8541
41.019,0.686682,0.509836,10.85259
41.039,0.689234,0.52013,10.85111
41.059,0.691398,0.530753,10.84934
41.079,0.693327,0.541686,10.84744
41.099,0.695323,0.552519,10.84562
41.119,0.69751,0.56315,10.84395
41.139,0.699877,0.573724,10.84247
41.159,0.702274,0.584293,10.84074
41.179,0.704651,0.594904,10.83908
41.199,0.706873,0.605469,10.83735
41.219,0.709024,0.61587,10.83575
41.239,0.711127,0.626324,10.83403
41.278,0.713108,0.636973,10.83239
41.298,0.715021,0.647571,10.83064
41.318,0.716919,0.658195,10.82902
41.338,0.719112,0.668556,10.82741
41.358,0.721462,0.679177,10.82617
41.378,0.723669,0.689769,10.82492
41.398,0.725823,0.700026,10.82336
41.418,0.727961,0.710116,10.82197
41.438,0.730301,0.720197,10.82079
41.458,0.732568,0.730659,10.81955
41.478,0.734678,0.741153,10.81803
41.498,0.736663,0.752276,10.8167
41.518,0.73856,0.763286,10.81514
41.557,0.740318,0.773623,10.81302
41.577,0.741944,0.784126,10.81185
41.597,0.743507,0.794482,10.81011
41.617,0.745119,0.805761,10.80867
41.637,0.746636,0.816979,10.80706
41.657,0.748181,0.827633,10.80563
41.677,0.7498,0.837844,10.80425
41.697,0.751622,0.847633,10.80306
41.717,0.753537,0.857404,10.80183
41.737,0.755487,0.867773,10.80057
41.757,0.757428,0.87828,10.79929
41.777,0.759462,0.888728,10.79786
41.797,0.761453,0.899201,10.79664
41.836,0.763006,0.909997,10.79514
41.856,0.764802,0.920521,10.79371
41.876,0.767095,0.930368,10.79286
41.896,0.769287,0.939721,10.79175
41.916,0.771059,0.949579,10.79051
41.936,0.772442,0.960204,10.78894
41.956,0.773703,0.971083,10.78744
41.976,0.775371,0.981322,10.78629
41.996,0.777681,0.990957,10.78557
42.016,0.77989,1.000059,10.78446
42.036,0.78188,1.009874,10.78315
42.056,0.783664,1.020013,10.78183
42.076,0.785457,1.030258,10.78046
42.115,0.787331,1.04017,10.77937
42.135,0.789076,1.049235,10.77796
42.155,0.790706,1.058638,10.77674
42.175,0.79222,1.068231,10.77561
42.195,0.793802,1.077796,10.77438
42.215,0.795578,1.08717,10.77342
42.235,0.797335,1.096558,10.77232
42.255,0.799188,1.106256,10.77133
42.275,0.800918,1.115791,10.77013
42.295,0.802585,1.125474,10.7689
42.315,0.804314,1.135037,10.76783
42.335,0.806196,1.143871,10.76691
42.355,0.808206,1.152405,10.76606
42.394,0.809817,1.161799,10.76486
42.414,0.811424,1.17146,10.76378
42.434,0.812987,1.180701,10.76259
42.454,0.814751,1.189551,10.76165
42.474,0.816589,1.197963,10.76059
42.494,0.818245,1.206671,10.75955
42.514,0.819765,1.21509,10.75854
42.534,0.821512,1.223311,10.75773
42.554,0.823512,1.231002,10.7569
42.574,0.825357,1.238974,10.75614
42.594,0.826886,1.247211,10.75506
42.614,0.828465,1.255279,10.75403
42.653,0.830707,1.262503,10.75346
42.673,0.832747,1.269797,10.75255
42.693,0.834432,1.277552,10.75171
42.713,0.83596,1.285827,10.75079
42.733,0.83761,1.294038,10.75009
42.753,0.839428,1.30157,10.74933
42.773,0.842045,1.307344,10.74621
42.793,0.844274,1.314554,10.74622
42.813,0.846839,1.319876,10.74445
42.833,0.849728,1.326541,10.74579
42.853,0.851259,1.333875,10.74487
42.873,0.851563,1.343173,10.74278
42.893,0.851419,1.353617,10.74184
42.913,0.851967,1.36161,10.7405
42.952,0.854624,1.365218,10.73992
42.972,0.857252,1.36973,10.74088
42.992,0.860911,1.373251,10.74194
43.012,0.863751,1.37745,10.74134
43.032,0.865731,1.384315,10.74163
43.052,0.866633,1.388534,10.74016
43.072,0.8667,1.395469,10.73786
43.092,0.866713,1.403079,10.73581
43.115,0.866633,1.411539,10.73613
43.152,0.867046,1.416007,10.73687
43.172,0.868412,1.419247,10.73725
43.192,0.869601,1.424811,10.73908
43.231,0.866868,1.430655,10.73744
43.251,0.864343,1.438499,10.73646
43.271,0.861129,1.444691,10.74036
43.291,0.858368,1.44817,10.74273
43.311,0.854966,1.448564,10.74036
43.331,0.849999,1.451874,10.74151
43.351,0.844314,1.456564,10.74074
43.371,0.837999,1.456702,10.73563
43.391,0.831849,1.458568,10.73512
43.411,0.824307,1.461254,10.7351
43.431,0.815566,1.463829,10.73952
43.451,0.805609,1.462821,10.73744
43.471,0.794005,1.463552,10.73188
43.51,0.780383,1.463925,10.72496
43.53,0.766571,1.465893,10.72576
43.55,0.752729,1.467537,10.72822
43.57,0.739897,1.462203,10.72281
43.59,0.723669,1.459191,10.7151
43.61,0.706405,1.455849,10.71014
43.63,0.688478,1.453727,10.70551
43.65,0.668711,1.453861,10.69994
43.67,0.647638,1.451553,10.69065
43.69,0.624458,1.447401,10.67441
43.71,0.599919,1.446221,10.66106
43.73,0.573467,1.449146,10.65409
43.75,0.545352,1.450615,10.64481
43.789,0.516986,1.453667,10.63165
43.809,0.488507,1.455446,10.61807
43.829,0.46036,1.454904,10.60418
43.849,0.430714,1.454829,10.59147
43.869,0.400421,1.455031,10.57976
43.889,0.366588,1.458369,10.56638
43.909,0.328608,1.462176,10.55152
43.929,0.290003,1.465124,10.53257
43.949,0.252269,1.467194,10.51339
43.969,0.213905,1.469479,10.49554
43.989,0.17434,1.475984,10.48779
44.009,0.139173,1.472917,10.4783
44.029,0.10443,1.472658,10.47026
44.068,0.073458,1.467834,10.45359
44.088,0.046331,1.468955,10.43912
44.108,0.020721,1.477708,10.42789
44.128,-0.008433,1.492182,10.42002
44.148,-0.039952,1.506979,10.40917
44.168,-0.07079,1.516655,10.39333
44.188,-0.097718,1.522481,10.37814
44.208,-0.11987,1.527378,10.36835
44.228,-0.139266,1.532375,10.365
44.248,-0.159538,1.540749,10.36661
44.268,-0.180654,1.54859,10.36787
44.288,-0.202347,1.557418,10.37184
44.308,-0.218871,1.568504,10.37908
44.347,-0.21614,1.568949,10.38361
44.367,-0.208809,1.563466,10.38093
44.387,-0.199622,1.556528,10.37702
44.407,-0.191421,1.551998,10.37907
44.427,-0.183703,1.550379,10.38749
44.447,-0.175867,1.548347,10.39559
44.467,-0.168146,1.54368,10.39827
44.487,-0.161037,1.537042,10.39883
44.507,-0.153592,1.530033,10.39941
44.527,-0.145814,1.523301,10.40286
44.547,-0.136067,1.51651,10.40874
44.567,-0.125923,1.509179,10.41223
44.587,-0.116011,1.501125,10.41205
44.626,-0.104529,1.493073,10.41526
44.646,-0.091967,1.483721,10.41843
44.666,-0.079367,1.474364,10.42137
44.686,-0.067095,1.465332,10.42358
44.706,-0.055352,1.456548,10.42476
44.726,-0.042389,1.447857,10.4267
44.746,-0.027415,1.439075,10.43056
44.766,-0.012206,1.429235,10.43351
44.786,0.002818,1.419377,10.43564
44.806,0.015203,1.410315,10.43738
44.826,0.025862,1.401628,10.43883
44.846,0.035909,1.393332,10.44083
44.866,0.047018,1.385029,10.44405
44.905,0.058921,1.376596,10.44575
44.925,0.069415,1.369514,10.44628
44.945,0.078682,1.363316,10.44757
44.965,0.088981,1.357249,10.44989
44.985,0.099666,1.350988,10.45212
45.005,0.109975,1.344427,10.4539
45.025,0.119515,1.337227,10.45506
45.045,0.129154,1.329538,10.45663
45.065,0.139926,1.321329,10.45908
45.085,0.152272,1.312681,10.46204
45.105,0.165026,1.30393,10.46391
45.125,0.176248,1.295983,10.46552
45.145,0.186205,1.288425,10.46734
45.184,0.196805,1.281093,10.47065
45.204,0.207912,1.272722,10.4732
45.224,0.218282,1.264099,10.4743
45.244,0.227078,1.255619,10.47503
45.264,0.235037,1.247254,10.4763
45.286,0.243233,1.239076,10.47795
45.324,0.252701,1.230713,10.47973
45.344,0.26237,1.222469,10.48192
45.364,0.271831,1.214329,10.48408
45.384,0.27983,1.20668,10.48568
45.404,0.287438,1.199109,10.48718
45.424,0.295487,1.190956,10.4891
45.463,0.303755,1.182853,10.49134
45.483,0.311853,1.175092,10.49318
45.503,0.320203,1.167161,10.49467
45.523,0.32862,1.159573,10.49627
45.543,0.337137,1.1523,10.49813
45.563,0.345267,1.145233,10.5003
45.583,0.352508,1.138303,10.50229
45.603,0.359099,1.131161,10.5038
45.623,0.366164,1.124017,10.50575
45.643,0.373799,1.116621,10.50817
45.663,0.381752,1.108971,10.51045
45.683,0.389224,1.101194,10.51141
45.703,0.395986,1.093719,10.51226
45.742,0.401759,1.087719,10.51428
45.762,0.407212,1.081729,10.51613
45.782,0.412546,1.075723,10.51728
45.802,0.418123,1.0697,10.51875
45.822,0.424284,1.063647,10.52074
45.842,0.430797,1.057021,10.52276
45.862,0.437465,1.050185,10.52423
45.882,0.443732,1.043846,10.5256
45.902,0.449863,1.037769,10.5272
45.922,0.456067,1.031868,10.52909
45.942,0.462426,1.025701,10.53089
45.962,0.468584,1.019379,10.53241
45.982,0.474284,1.013082,10.53376
46.021,0.480093,1.007225,10.53513
46.041,0.486106,1.001351,10.53706
46.061,0.49224,0.99517,10.53904
46.081,0.498369,0.988985,10.54046
46.101,0.50454,0.982728,10.54186
46.121,0.510784,0.976662,10.54328
46.141,0.516785,0.970799,10.54489
46.161,0.522512,0.964933,10.54645
46.181,0.527684,0.959091,10.54781
46.201,0.532697,0.953411,10.54939
46.221,0.538104,0.947795,10.55071
46.241,0.543508,0.942107,10.55199
46.261,0.549083,0.936401,10.55355
46.3,0.555092,0.930279,10.5551
46.32,0.560522,0.924318,10.55643
46.34,0.565283,0.918902,10.55772
46.36,0.570186,0.91392,10.55935
46.38,0.575307,0.908713,10.56078
46.4,0.580628,0.903132,10.56205
46.42,0.585994,0.897233,10.56314
46.44,0.591346,0.89133,10.56431
46.46,0.597048,0.8856,10.56599
46.48,0.602947,0.87977,10.56754
46.5,0.60857,0.87414,10.56909
46.52,0.613325,0.868629,10.57024
46.54,0.617644,0.863384,10.57131
46.579,0.622436,0.857957,10.57273
46.599,0.627865,0.852431,10.57408
46.619,0.63343,0.846832,10.57547
46.639,0.638709,0.841241,10.57674
46.659,0.643449,0.836038,10.57793
46.679,0.64743,0.8311,10.579
46.699,0.651225,0.826305,10.58006
46.719,0.6554,0.82157,10.5811
46.739,0.660145,0.816882,10.58274
46.759,0.664998,0.811837,10.58419
46.779,0.669618,0.806652,10.58528
46.799,0.67408,0.801232,10.58638
46.819,0.678519,0.795995,10.58761
46.858,0.683154,0.791274,10.58895
46.878,0.68791,0.786533,10.59005
46.898,0.692204,0.781945,10.5912
46.918,0.696447,0.777135,10.59218
46.938,0.700725,0.772252,10.59341
46.958,0.70514,0.767336,10.59489
46.978,0.709518,0.76224,10.59624
46.998,0.713932,0.757017,10.5977
47.018,0.71838,0.751868,10.59896
47.038,0.72229,0.747083,10.59993
47.058,0.725966,0.742702,10.60086
47.078,0.729766,0.738391,10.60192
47.098,0.733604,0.734084,10.60325
47.137,0.737438,0.729387,10.60427
47.157,0.741167,0.724721,10.60532
47.177,0.744978,0.720153,10.6068
47.197,0.748615,0.715563,10.60792
47.217,0.752165,0.711083,10.60897
47.237,0.756677,0.706215,10.61048
47.257,0.760916,0.701365,10.61207
47.277,0.763855,0.6969,10.61294
47.297,0.766268,0.692804,10.61336
47.317,0.768754,0.689063,10.61423
47.337,0.771039,0.685466,10.61531
47.357,0.773302,0.681625,10.61627
47.377,0.775789,0.677656,10.61697
47.416,0.778826,0.673689,10.61823
47.436,0.78208,0.669493,10.6195
47.46,0.78509,0.665403,10.6205
47.496,0.787791,0.661457,10.62162
47.516,0.790481,0.657424,10.62268
47.536,0.793175,0.653534,10.6236
47.556,0.795805,0.649709,10.62473
47.576,0.798318,0.646027,10.62578
47.596,0.800849,0.642461,10.62684
47.616,0.803464,0.638895,10.628
47.636,0.806544,0.634937,10.62914
47.656,0.80927,0.631043,10.63009
47.695,0.811723,0.627316,10.63092
47.715,0.81405,0.623715,10.6318
47.735,0.816357,0.620166,10.63296
47.755,0.81867,0.616806,10.63404
47.775,0.821015,0.613395,10.63497
47.795,0.823352,0.609846,10.63585
47.815,0.825926,0.606372,10.63684
47.835,0.828467,0.603022,10.63789
47.855,0.830781,0.599971,10.63907
47.875,0.833025,0.596657,10.63993
47.895,0.835186,0.592994,10.64065
47.915,0.837468,0.589233,10.64165
47.935,0.839667,0.585496,10.64262
47.974,0.841899,0.582402,10.64369
47.994,0.843961,0.579504,10.64439
48.014,0.845868,0.576639,10.64516
48.034,0.847983,0.573403,10.64587
48.054,0.85023,0.57019,10.64696
48.074,0.852396,0.566951,10.64809
48.094,0.85442,0.563626,10.64894
48.114,0.856465,0.560639,10.64964
48.134,0.858297,0.55788,10.65039
48.154,0.860089,0.555082,10.65125
48.174,0.861865,0.552267,10.65224
48.194,0.863845,0.549281,10.6533
48.214,0.866003,0.545882,10.65413
48.253,0.867999,0.542866,10.655
48.273,0.869858,0.53998,10.65582
48.293,0.871907,0.537054,10.65689
48.313,0.873938,0.534101,10.65766
48.333,0.875429,0.531466,10.65851
48.353,0.877097,0.528839,10.65941
48.373,0.878397,0.52635,10.6609
48.393,0.879874,0.523998,10.66247
48.413,0.880879,0.522028,10.66349
48.433,0.881279,0.520181,10.66413
48.453,0.881429,0.5185,10.66504
48.473,0.881799,0.516424,10.66538
48.493,0.881599,0.514515,10.66592
48.532,0.880791,0.513097,10.66647
48.552,0.878661,0.512062,10.66611
48.572,0.874865,0.511175,10.66638
48.592,0.87221,0.511433,10.66733
48.612,0.872469,0.514025,10.66932
48.632,0.875744,0.51821,10.6708
48.652,0.880043,0.524029,10.66999
48.672,0.886314,0.532423,10.66849
48.712,0.901128,0.539329,10.67047
48.732,0.92226,0.543399,10.67483
48.752,0.946848,0.545377,10.67783
48.772,0.972154,0.547421,10.67718
48.811,0.998816,0.552172,10.672
48.831,1.026208,0.555254,10.66237
48.851,1.058349,0.555517,10.65142
48.871,1.096757,0.553857,10.6379
48.891,1.136677,0.554114,10.62225
48.911,1.180091,0.552326,10.60376
48.931,1.227075,0.547366,10.58073
48.951,1.276639,0.5421,10.55571
48.971,1.328402,0.538365,10.53045
48.991,1.380318,0.536328,10.50549
49.011,1.434434,0.535631,10.47844
49.031,1.492737,0.535153,10.44745
49.051,1.553046,0.534479,10.41456
49.09,1.616545,0.534121,10.37847
49.11,1.687123,0.533059,10.33898
49.13,1.769554,0.535717,10.3012
49.15,1.845429,0.535951,10.25269
49.17,1.92239,0.534267,10.20185
49.19,1.999772,0.535313,10.15097
49.21,2.076812,0.537951,10.09883
49.23,2.156812,0.539975,10.04236
49.25,2.238762,0.542212,9.985381
49.27,2.322783,0.544662,9.92789
49.29,2.408681,0.546708,9.868344
49.31,2.496289,0.548643,9.806711
49.33,2.585365,0.550415,9.74311
49.369,2.674822,0.551959,9.677181
49.389,2.765394,0.553429,9.609042
49.409,2.857418,0.554887,9.539924
49.429,2.951417,0.557005,9.470812
49.449,3.046305,0.559449,9.401215
49.469,3.142592,0.561539,9.328773
49.489,3.238434,0.563414,9.253759
49.509,3.33364,0.56592,9.178617
49.529,3.430309,0.568517,9.106188
49.549,3.528933,0.571056,9.030521
49.569,3.628359,0.573381,8.951982
49.589,3.72762,0.575618,8.871976
49.609,3.82726,0.577862,8.791059
49.634,3.927071,0.579842,8.70841
49.668,4.027059,0.581768,8.62336
49.688,4.126601,0.584128,8.538851
49.708,4.226453,0.58637,8.45348
49.728,4.325337,0.588899,8.367938
49.748,4.423675,0.59101,8.280823
49.768,4.524508,0.592622,8.189241
49.788,4.627414,0.594832,8.095775
49.808,4.726109,0.597388,8.004481
49.828,4.822765,0.600269,7.916769
49.848,4.92051,0.603257,7.827947
49.868,5.018523,0.605769,7.735657
49.888,5.1151,0.607837,7.641378
49.927,5.210369,0.609208,7.548711
49.947,5.305074,0.610416,7.455491
49.967,5.397596,0.611525,7.362286
49.987,5.489565,0.612858,7.267666
50.007,5.580764,0.614516,7.173793
50.027,5.668978,0.616606,7.086957
50.047,5.756458,0.618604,7.005147
50.067,5.842906,0.620499,6.924015
50.087,5.927934,0.622082,6.844545
50.107,6.012098,0.623505,6.764016
50.127,6.094972,0.624448,6.679494
50.147,6.173812,0.625863,6.60257
50.167,6.246728,0.628509,6.53248
50.206,6.324112,0.63017,6.464432
50.226,6.400423,0.631603,6.395693
50.247,6.476203,0.632839,6.325663
50.286,6.549946,0.634687,6.253895
50.306,6.622152,0.636465,6.182445
50.326,6.693185,0.637928,6.112303
50.346,6.763141,0.639244,6.043128
50.366,6.831434,0.640435,5.973218
50.386,6.89798,0.641725,5.902944
50.406,6.963925,0.642929,5.833629
50.426,7.029185,0.644067,5.763554
50.446,7.091286,0.645449,5.698017
50.485,7.152416,0.646388,5.634396
50.505,7.214159,0.647147,5.567808
50.525,7.27383,0.648169,5.504388
50.545,7.331049,0.649453,5.443982
50.565,7.386204,0.651052,5.386591
50.585,7.441317,0.65247,5.329883
50.605,7.495292,0.653595,5.272816
50.625,7.547753,0.654523,5.21593
50.645,7.599381,0.655501,5.160377
50.665,7.648757,0.656718,5.107307
50.685,7.697694,0.657993,5.055262
50.705,7.746078,0.659382,5.004806
50.725,7.791815,0.660669,4.958423
50.764,7.8388,0.662051,4.910759
50.784,7.884427,0.663266,4.861457
50.804,7.928635,0.664678,4.815154
50.824,7.969307,0.666211,4.78982
50.845,8.01404,0.666079,4.745028
50.884,8.051827,0.666787,4.703418
50.904,8.090697,0.667399,4.65584
50.924,8.128868,0.667089,4.613374
50.944,8.167134,0.667896,4.59303
50.964,8.215691,0.667368,4.593758
50.984,8.263653,0.663203,4.592268
51.004,8.323504,0.660247,4.593819
51.043,8.365697,0.659685,4.614953
51.063,8.409926,0.653395,4.611196
51.083,8.442191,0.644733,4.58953
51.103,8.448432,0.640463,4.57564
51.123,8.435547,0.638693,4.571447
51.143,8.406265,0.635437,4.583125
51.163,8.36467,0.631346,4.596185
51.183,8.325562,0.629473,4.642793
51.203,8.281009,0.626517,4.706357
51.223,8.22972,0.622397,4.758489
51.243,8.159182,0.621716,4.81446
51.263,8.072622,0.624883,4.890296
51.283,7.98021,0.628424,4.975826
51.322,7.865511,0.634028,5.068376
51.342,7.737325,0.640284,5.162624
51.362,7.598472,0.646746,5.254744
51.382,7.454959,0.653881,5.352756
51.402,7.30009,0.665509,5.525553
51.422,7.136477,0.672496,5.649749
51.442,6.976771,0.678124,5.72595
51.462,6.810477,0.682642,5.789992
51.482,6.627443,0.687131,5.831039
51.502,6.432454,0.694885,5.863389
51.522,6.230094,0.702575,5.913574
51.542,6.032838,0.708557,5.973268
51.562,5.835279,0.714448,6.040386
51.601,5.636806,0.722132,6.116459
51.621,5.446463,0.728722,6.180267
51.641,5.266919,0.73378,6.24027
51.661,5.086071,0.739545,6.301073
51.681,4.894763,0.747206,6.36851
51.701,4.708458,0.753596,6.429657
51.721,4.536391,0.758858,6.490297
51.741,4.377654,0.762735,6.553847
51.761,4.235612,0.766169,6.628582
51.781,4.098328,0.76917,6.706018
51.801,3.965555,0.770093,6.772894
51.825,3.828252,0.771686,6.834421
51.863,3.710685,0.771663,6.904968
51.902,3.558086,0.775214,6.956433
51.94,3.420631,0.778829,7.024899
51.96,3.292943,0.780386,7.08556
51.98,3.168073,0.782101,7.14406
52,3.040011,0.78525,7.206017
52.02,2.916017,0.787855,7.262921
52.04,2.797039,0.789141,7.31829
52.06,2.682029,0.790144,7.368958
52.08,2.576558,0.791462,7.431937
52.1,2.478248,0.791885,7.497137
52.12,2.383485,0.790742,7.546601
52.14,2.288015,0.789645,7.586688
52.179,2.193876,0.788942,7.638447
52.199,2.099921,0.789842,7.697612
52.219,2.001039,0.790736,7.743912
52.239,1.899353,0.791939,7.787067
52.259,1.807562,0.79282,7.836097
52.279,1.726712,0.793161,7.892402
52.299,1.653739,0.792153,7.94052
52.319,1.580171,0.791198,7.978371
52.339,1.50489,0.791732,8.019774
52.359,1.430849,0.792666,8.071212
52.379,1.35729,0.792825,8.115722
52.399,1.280749,0.791478,8.143342
52.419,1.215364,0.790633,8.178651
52.458,1.145434,0.790101,8.220877
52.478,1.070138,0.790759,8.254288
52.498,0.997202,0.791653,8.285409
52.518,0.93053,0.792255,8.318055
52.538,0.872286,0.792743,8.35587
52.558,0.81659,0.792824,8.390565
52.578,0.75878,0.793169,8.41583
52.598,0.697161,0.794585,8.446622
52.618,0.637736,0.795902,8.475819
52.638,0.581503,0.796605,8.504639
52.658,0.529526,0.797393,8.536006
52.678,0.48258,0.79823,8.572631
52.698,0.43988,0.798289,8.600347
52.737,0.39736,0.799055,8.624492
52.757,0.350533,0.800619,8.648099
52.777,0.315762,0.802175,8.684748
52.797,0.28159,0.803901,8.720104
52.817,0.245382,0.806186,8.748988
52.837,0.20341,0.809056,8.775029
52.857,0.158978,0.812333,8.79937
52.877,0.117815,0.814827,8.825261
52.897,0.081951,0.817232,8.844163
52.917,0.053649,0.819324,8.867124
52.937,0.02993,0.820812,8.892793
52.957,0.005661,0.822983,8.919117
52.977,-0.013538,0.824852,8.945749
53.016,-0.024536,0.825617,8.972013
53.036,-0.030944,0.825768,8.996305
53.056,-0.033632,0.825619,9.021563
53.076,-0.038303,0.826251,9.05073
53.096,-0.047226,0.827271,9.075585
53.116,-0.06002,0.828713,9.099253
53.136,-0.073928,0.830311,9.117655
53.156,-0.085984,0.831893,9.136395
53.176,-0.098158,0.833727,9.159314
53.196,-0.114617,0.836332,9.181263
53.216,-0.128159,0.838815,9.20245
53.236,-0.142225,0.841176,9.220217
53.256,-0.158474,0.843986,9.233933
53.295,-0.170753,0.846821,9.252942
53.315,-0.181932,0.848617,9.264142
53.335,-0.196453,0.851978,9.281157
53.355,-0.211494,0.856075,9.29843
53.375,-0.223376,0.860391,9.318674
53.395,-0.231682,0.86418,9.334918
53.415,-0.238761,0.867403,9.350463
53.435,-0.246028,0.870582,9.365143
53.455,-0.252518,0.874048,9.380138
53.475,-0.26339,0.879008,9.396481
53.495,-0.273428,0.884849,9.409555
53.515,-0.282112,0.890193,9.423169
53.535,-0.286625,0.893762,9.437108
53.574,-0.290713,0.897064,9.45154
53.594,-0.295726,0.90072,9.466199
53.614,-0.301632,0.905279,9.48094
53.634,-0.307736,0.910126,9.495819
53.654,-0.313941,0.914228,9.506889
53.674,-0.317598,0.917922,9.518731
53.694,-0.318108,0.919829,9.534583
53.714,-0.324684,0.924724,9.546745
53.734,-0.333828,0.930285,9.558609
53.754,-0.336388,0.934974,9.572311
53.774,-0.338324,0.93838,9.585051
53.794,-0.339294,0.941244,9.596114
53.814,-0.341513,0.944836,9.607118
53.853,-0.344861,0.949663,9.618676
53.873,-0.345158,0.953091,9.631178
53.893,-0.348663,0.957251,9.639123
53.913,-0.353528,0.962254,9.64954
53.933,-0.353117,0.964381,9.658688
53.953,-0.356851,0.967269,9.669355
53.973,-0.366183,0.972206,9.678433
53.993,-0.370923,0.975983,9.69828
54.017,-0.376717,0.980213,9.708966
54.053,-0.380842,0.983368,9.718972
54.073,-0.386287,0.986912,9.729923
54.093,-0.392527,0.990227,9.739273
54.132,-0.398928,0.993632,9.748046
54.152,-0.40424,0.997172,9.758011
54.172,-0.409968,1.000536,9.766981
54.192,-0.41473,1.003432,9.77495
54.212,-0.417425,1.005757,9.784588
54.232,-0.420354,1.008795,9.797342
54.252,-0.423371,1.011556,9.807943
54.272,-0.427126,1.013711,9.813663
54.292,-0.43033,1.015846,9.819975
54.312,-0.433593,1.01778,9.829257
54.332,-0.434205,1.019357,9.840329
54.352,-0.437196,1.02138,9.848763
54.372,-0.437764,1.024649,9.85045
54.411,-0.439896,1.026787,9.862084
54.431,-0.442761,1.028261,9.86887
54.451,-0.45014,1.030108,9.87818
54.471,-0.455917,1.031265,9.882075
54.491,-0.462212,1.03313,9.890787
54.511,-0.467815,1.034777,9.899443
54.531,-0.471969,1.03656,9.906677
54.551,-0.475465,1.038163,9.913738
54.571,-0.479813,1.039973,9.91908
54.591,-0.485225,1.042052,9.925746
54.611,-0.490414,1.044148,9.933714
54.631,-0.494556,1.046135,9.940549
54.651,-0.499006,1.047612,9.946657
54.671,-0.503536,1.049536,9.950522
54.71,-0.510784,1.052771,9.956273
54.73,-0.516545,1.056032,9.964832
54.75,-0.519248,1.057639,9.97165
54.77,-0.52059,1.058373,9.977194
54.79,-0.523241,1.060071,9.98226
54.81,-0.52672,1.061938,9.989043
54.83,-0.528954,1.063982,9.997063
54.85,-0.530415,1.064706,10.00657
54.87,-0.530598,1.064222,10.01039
54.89,-0.531717,1.063354,10.01417
54.91,-0.534018,1.063881,10.02131
54.93,-0.537554,1.065201,10.02962
54.95,-0.541643,1.066653,10.03381
54.989,-0.544874,1.067531,10.03798
55.009,-0.548453,1.068542,10.04373
55.029,-0.551855,1.07007,10.0493
55.049,-0.554457,1.071485,10.05462
55.069,-0.556696,1.072528,10.0595
55.089,-0.558522,1.073393,10.06429
55.109,-0.560178,1.074097,10.06867
55.129,-0.560914,1.074892,10.07537
55.149,-0.562014,1.075579,10.07991
55.169,-0.562638,1.075885,10.08601
55.189,-0.563745,1.076572,10.09071
55.209,-0.565675,1.077341,10.09664
55.229,-0.567771,1.078572,10.10308
55.268,-0.570167,1.079373,10.10542
55.288,-0.572842,1.080676,10.10929
55.308,-0.57603,1.081964,10.11412
55.328,-0.579349,1.083009,10.1186
55.348,-0.582308,1.083435,10.12213
55.368,-0.58503,1.083749,10.1256
55.388,-0.58797,1.08452,10.12917
55.408,-0.590809,1.085679,10.1334
55.428,-0.592702,1.086857,10.13791
55.448,-0.59449,1.087746,10.14271
55.468,-0.596173,1.08844,10.14695
55.488,-0.597559,1.088832,10.15047
55.508,-0.598279,1.088982,10.15489
55.547,-0.598119,1.089041,10.16039
55.567,-0.597994,1.089091,10.165
55.587,-0.598284,1.089051,10.1691
55.607,-0.598507,1.089036,10.17338
55.627,-0.599151,1.089134,10.17837
55.647,-0.599537,1.088925,10.18239
55.667,-0.599918,1.088838,10.18647
55.687,-0.599894,1.088783,10.19122
55.707,-0.600069,1.088529,10.19505
55.727,-0.600455,1.088444,10.19909
55.747,-0.60073,1.088224,10.2032
55.767,-0.601077,1.087958,10.20724
55.787,-0.601136,1.087686,10.21163
55.826,-0.600942,1.087337,10.21524
55.846,-0.60075,1.087178,10.2197
55.866,-0.600252,1.086895,10.2238
55.886,-0.599644,1.086528,10.22752
55.906,-0.599332,1.086287,10.23115
55.926,-0.599054,1.086173,10.23522
55.946,-0.598821,1.085974,10.23888
55.966,-0.598534,1.085591,10.24269
55.986,-0.598251,1.085094,10.24616
56.006,-0.598112,1.084885,10.24968
56.026,-0.597918,1.084746,10.25339
56.046,-0.597127,1.084539,10.25721
56.085,-0.596498,1.084242,10.26114
56.105,-0.596179,1.083939,10.26472
56.125,-0.595781,1.083569,10.26819
56.145,-0.595305,1.083225,10.27186
56.165,-0.594591,1.082904,10.27552
56.188,-0.593844,1.082639,10.2789
56.225,-0.593185,1.08251,10.28222
56.245,-0.592586,1.082404,10.28522
56.265,-0.591848,1.082284,10.28835
56.285,-0.591316,1.082202,10.29219
56.305,-0.590842,1.081913,10.29563
56.325,-0.59015,1.081411,10.29866
56.364,-0.589413,1.081118,10.30182
56.384,-0.588541,1.080952,10.30497
56.404,-0.587975,1.080897,10.30836
56.424,-0.587479,1.080725,10.31143
56.444,-0.586681,1.080423,10.31443
56.464,-0.585967,1.080196,10.31752
56.484,-0.58545,1.080115,10.32102
56.504,-0.585469,1.080092,10.3242
56.524,-0.587244,1.08074,10.32658
56.544,-0.590092,1.081206,10.3281
56.564,-0.591496,1.080138,10.33033
56.584,-0.590501,1.078185,10.33399
56.604,-0.588848,1.076811,10.33831
56.643,-0.587862,1.07677,10.33983
56.663,-0.583287,1.075677,10.34032
56.683,-0.575169,1.074604,10.34501
56.703,-0.567537,1.074448,10.35206
56.723,-0.562714,1.074385,10.35707
56.743,-0.559448,1.072968,10.35881
56.763,-0.556155,1.070378,10.36127
56.783,-0.552628,1.067657,10.36524
56.803,-0.549848,1.065545,10.36913
56.823,-0.54792,1.063929,10.3716
56.843,-0.546118,1.062204,10.37376
56.863,-0.543821,1.060684,10.37679
56.883,-0.542014,1.059724,10.37971
56.903,-0.54108,1.05935,10.38296
56.942,-0.540683,1.058716,10.38522
56.962,-0.540422,1.057555,10.38752
56.982,-0.540639,1.056631,10.39001
57.002,-0.54191,1.056664,10.39321
57.022,-0.544044,1.057393,10.39482
57.042,-0.54754,1.059039,10.39479
57.062,-0.552473,1.061642,10.39464
57.082,-0.557994,1.064558,10.39419
57.102,-0.563514,1.067436,10.39403
57.122,-0.568423,1.070057,10.39432
57.142,-0.572765,1.072355,10.39578
57.162,-0.576036,1.073864,10.39658
57.182,-0.578356,1.074574,10.39765
57.221,-0.579217,1.074795,10.39969
57.241,-0.579487,1.074985,10.40237
57.261,-0.579603,1.075119,10.40488
57.281,-0.579995,1.075062,10.407
57.301,-0.580914,1.075034,10.40913
57.321,-0.582525,1.075299,10.41072
57.341,-0.584764,1.076014,10.41164
57.361,-0.587157,1.077052,10.41274
57.381,-0.589261,1.07821,10.41424
57.401,-0.590702,1.079122,10.41601
57.421,-0.591792,1.079629,10.41735
57.441,-0.593099,1.080009,10.41863
57.461,-0.594653,1.080263,10.42001
57.5,-0.595781,1.080275,10.42223
57.52,-0.596621,1.080493,10.42461
57.54,-0.597854,1.080976,10.42584
57.56,-0.599665,1.081634,10.42649
57.58,-0.601861,1.08233,10.42762
57.6,-0.604241,1.08322,10.429
57.62,-0.606715,1.084154,10.43041
57.64,-0.609173,1.085063,10.43144
57.66,-0.611154,1.08557,10.43246
57.68,-0.612421,1.085614,10.43378
57.7,-0.613285,1.085585,10.43534
57.72,-0.61424,1.085642,10.43742
57.74,-0.615253,1.085478,10.43877
57.76,-0.616203,1.085342,10.43984
57.799,-0.617264,1.085533,10.44159
57.819,-0.618446,1.08577,10.44314
57.839,-0.619394,1.08572,10.44392
57.859,-0.620207,1.085532,10.44525
57.879,-0.621067,1.08539,10.44726
57.899,-0.621951,1.085105,10.44894
57.919,-0.622459,1.084545,10.45079
57.939,-0.622638,1.083836,10.45242
57.959,-0.62247,1.083039,10.4541
57.979,-0.622033,1.082016,10.45598
57.999,-0.621101,1.080872,10.45883
58.019,-0.620817,1.080287,10.4603
58.039,-0.621154,1.079647,10.46155
58.078,-0.621591,1.078918,10.46337
58.098,-0.621472,1.077945,10.46536
58.118,-0.62111,1.076819,10.46686
58.138,-0.620994,1.075788,10.46845
58.158,-0.621132,1.074864,10.47026
58.178,-0.621298,1.074029,10.47161
58.198,-0.621343,1.072989,10.4729
58.218,-0.621059,1.071655,10.47446
58.238,-0.620657,1.070131,10.47623
58.258,-0.62015,1.068644,10.47768
58.278,-0.619626,1.067238,10.47922
58.298,-0.618881,1.065674,10.48083
58.318,-0.617876,1.063966,10.48257
58.34,-0.61682,1.062403,10.48458
58.377,-0.615624,1.060897,10.48616
58.397,-0.614359,1.059258,10.48778
58.417,-0.613121,1.057565,10.48942
58.437,-0.611766,1.055999,10.49113
58.457,-0.610429,1.054496,10.49311
58.477,-0.608985,1.052899,10.49475
58.497,-0.60755,1.051299,10.49645
58.517,-0.60621,1.049795,10.49811
58.537,-0.604946,1.048411,10.49991
58.557,-0.603709,1.047017,10.50166
58.577,-0.602365,1.045265,10.50301
58.597,-0.600375,1.043452,10.50483
58.617,-0.597922,1.041455,10.50654
58.656,-0.595508,1.039597,10.50835
58.676,-0.593249,1.037561,10.51013
58.696,-0.590953,1.035425,10.51184
58.716,-0.588584,1.033337,10.51362
58.736,-0.586388,1.03152,10.51571
58.756,-0.584211,1.029877,10.51746
58.776,-0.582084,1.028355,10.51887
58.796,-0.579685,1.026688,10.52034
58.816,-0.577195,1.024991,10.52197
58.836,-0.574875,1.023318,10.52384
58.856,-0.572755,1.021636,10.52553
58.876,-0.570889,1.019781,10.52697
58.896,-0.568856,1.01778,10.5284
58.935,-0.566599,1.016019,10.52995
58.955,-0.564195,1.014293,10.53139
58.975,-0.561747,1.012645,10.53295
58.995,-0.559282,1.010928,10.53467
59.015,-0.556875,1.009175,10.53621
59.035,-0.554665,1.007329,10.53773
59.055,-0.552512,1.005374,10.53938
59.075,-0.550139,1.003411,10.54098
59.095,-0.547516,1.001648,10.54257
59.115,-0.544841,0.999903,10.54424
59.135,-0.542519,0.998122,10.54566
59.155,-0.540422,0.996338,10.54708
59.175,-0.538187,0.99475,10.54847
59.195,-0.535907,0.993153,10.54982
59.234,-0.533565,0.991368,10.55135
59.254,-0.531095,0.989555,10.55259
59.274,-0.528415,0.987792,10.55385
59.294,-0.525701,0.986099,10.55548
59.314,-0.523228,0.984384,10.55687
59.334,-0.520904,0.982482,10.55849
59.354,-0.518241,0.980299,10.55982
59.374,-0.515195,0.977875,10.56122
59.394,-0.512049,0.975434,10.56287
59.414,-0.508869,0.973089,10.56466
59.434,-0.506022,0.971046,10.56601
59.454,-0.503601,0.969432,10.56721
59.474,-0.501374,0.968023,10.56844
59.513,-0.499332,0.966418,10.56941
59.533,-0.497154,0.964691,10.57027
59.553,-0.494565,0.962815,10.57113
59.573,-0.491327,0.960644,10.57229
59.593,-0.487441,0.958223,10.5744
59.613,-0.483217,0.955398,10.57606
59.633,-0.478901,0.95236,10.57777
59.653,-0.474787,0.949041,10.57898
59.673,-0.470794,0.945749,10.57983
59.693,-0.467041,0.943049,10.58183
59.713,-0.463374,0.940676,10.58378
59.733,-0.459633,0.93849,10.58506
59.753,-0.456061,0.936518,10.58631
59.792,-0.45276,0.934462,10.58754
59.812,-0.449507,0.932294,10.58885
59.832,-0.446173,0.93007,10.59031
59.852,-0.442758,0.927774,10.59183
59.872,-0.439308,0.925476,10.593
59.892,-0.436129,0.923414,10.59418
59.912,-0.432878,0.921389,10.59566
59.932,-0.429649,0.919356,10.59702
59.952,-0.426551,0.91745,10.5983
59.972,-0.423661,0.915657,10.59943
59.992,-0.420828,0.913856,10.60045
60.012,-0.418017,0.912155,10.60166
60.032,-0.415254,0.910445,10.60281
60.071,-0.412327,0.908555,10.60399
60.091,-0.409319,0.906813,10.60528
60.111,-0.40634,0.904953,10.6065
60.131,-0.403235,0.903022,10.60785
60.151,-0.400335,0.901034,10.60913
60.171,-0.397624,0.899188,10.61025
60.191,-0.394971,0.897435,10.61158
60.211,-0.392487,0.895673,10.61244
60.231,-0.390116,0.89391,10.61298
60.251,-0.38783,0.89215,10.61383
60.271,-0.385629,0.890307,10.61509
60.291,-0.383106,0.888502,10.61659
60.311,-0.380373,0.886661,10.61789
60.35,-0.377448,0.884934,10.61863
60.37,-0.374627,0.883137,10.61989
60.39,-0.371855,0.88122,10.62157
60.41,-0.369398,0.879302,10.62265
60.43,-0.366971,0.87736,10.62359
60.45,-0.364223,0.875306,10.62476
60.47,-0.36168,0.873339,10.62606
60.495,-0.359572,0.871605,10.62665
60.53,-0.357575,0.870288,10.62776
60.55,-0.355386,0.868955,10.62911
60.57,-0.353098,0.867318,10.63
60.59,-0.350747,0.865499,10.63081
60.61,-0.348297,0.863602,10.6317
60.649,-0.345666,0.861737,10.63287
60.669,-0.342881,0.859891,10.63422
60.689,-0.340153,0.858015,10.63533
60.709,-0.337528,0.856144,10.63614
60.729,-0.33505,0.854237,10.63689
60.749,-0.33241,0.85243,10.63787
60.769,-0.329773,0.850725,10.63898
60.789,-0.327319,0.849039,10.64004
60.809,-0.324886,0.847433,10.64107
60.829,-0.322435,0.845784,10.64194
60.849,-0.319805,0.844132,10.64281
60.869,-0.31713,0.84223,10.64374
60.889,-0.314595,0.840382,10.64485
60.928,-0.312124,0.838655,10.64577
60.948,-0.309574,0.83703,10.64664
60.968,-0.306961,0.835368,10.6476
60.988,-0.304341,0.833649,10.64862
61.008,-0.301823,0.831859,10.64957
61.028,-0.299271,0.82999,10.65057
61.048,-0.296802,0.828237,10.65159
61.068,-0.294307,0.826565,10.65247
61.088,-0.291705,0.824884,10.65337
61.108,-0.289095,0.823159,10.65439
61.128,-0.28647,0.821397,10.65533
61.148,-0.283855,0.819724,10.65633
61.168,-0.28135,0.818076,10.65718
61.207,-0.27901,0.816398,10.65819
61.227,-0.276455,0.8146,10.65909
61.247,-0.273865,0.812752,10.65997
61.267,-0.271276,0.811027,10.66092
61.288,-0.268698,0.80941,10.66181
61.327,-0.266041,0.807632,10.66271
61.347,-0.263466,0.805831,10.66357
61.367,-0.26102,0.804207,10.66431
61.387,-0.258629,0.802554,10.66518
61.407,-0.256249,0.800927,10.66606
61.427,-0.253906,0.799311,10.66712
61.447,-0.251348,0.797576,10.66798
61.486,-0.248585,0.795915,10.66888
61.506,-0.246058,0.794231,10.66968
61.526,-0.24373,0.792648,10.67061
61.546,-0.241529,0.791071,10.67149
61.566,-0.23941,0.789415,10.67206
61.586,-0.237283,0.78775,10.67286
61.606,-0.235094,0.785952,10.67365
61.626,-0.232485,0.784158,10.67446
61.646,-0.229547,0.782467,10.67548
61.666,-0.226878,0.780794,10.67631
61.686,-0.224516,0.779167,10.677
61.706,-0.222361,0.777517,10.67778
61.726,-0.220305,0.775942,10.67854
61.765,-0.21783,0.774309,10.67929
61.785,-0.214981,0.772473,10.68019
61.805,-0.212197,0.770566,10.68091
61.825,-0.209949,0.768906,10.68167
61.845,-0.20806,0.767459,10.68234
61.865,-0.206046,0.766057,10.683
61.885,-0.203633,0.764398,10.68373
61.905,-0.201069,0.762502,10.68453
61.925,-0.198676,0.760672,10.68537
61.945,-0.196488,0.759083,10.68595
61.965,-0.194292,0.757657,10.68654
61.985,-0.192,0.756188,10.68727
62.005,-0.189797,0.754758,10.68816
62.044,-0.187605,0.753126,10.68885
62.064,-0.185475,0.751678,10.68972
62.084,-0.183151,0.75011,10.69055
62.104,-0.180749,0.748403,10.6911
62.124,-0.178445,0.746762,10.69204
62.144,-0.176107,0.745043,10.69274
62.164,-0.174026,0.743433,10.69342
62.184,-0.172095,0.741889,10.69415
62.204,-0.170042,0.740247,10.69465
62.224,-0.167998,0.738789,10.69547
62.244,-0.165708,0.737163,10.69613
62.264,-0.163437,0.73548,10.69679
62.284,-0.161254,0.733954,10.69763
62.323,-0.159169,0.732446,10.69826
62.343,-0.157111,0.730908,10.69893
62.363,-0.154895,0.729244,10.69946
62.383,-0.152707,0.727654,10.70028
62.403,-0.150554,0.726076,10.70102
62.423,-0.148604,0.724592,10.70158
62.443,-0.146671,0.72325,10.70227
62.463,-0.144607,0.721824,10.70283
62.483,-0.142404,0.720278,10.7035
62.503,-0.140351,0.718799,10.70416
62.523,-0.138262,0.717359,10.70474
62.543,-0.13634,0.715917,10.70539
62.563,-0.134314,0.714336,10.70595
62.602,-0.132366,0.712745,10.70659
62.622,-0.13034,0.711207,10.7073
62.642,-0.128324,0.709873,10.70798
62.662,-0.126403,0.708612,10.70854
62.685,-0.124456,0.707233,10.709
62.724,-0.122752,0.705652,10.70955
62.764,-0.120753,0.70413,10.71041
62.802,-0.118634,0.702641,10.71096
62.842,-0.116895,0.701232,10.71139
62.881,-0.11513,0.699738,10.71204
62.901,-0.113192,0.69816,10.7127
62.921,-0.111195,0.696683,10.71335
62.941,-0.109223,0.695244,10.71399
62.961,-0.107303,0.694002,10.7146
62.981,-0.105392,0.692648,10.71526
63.001,-0.103481,0.691155,10.71572
63.021,-0.101587,0.689694,10.71634
63.041,-0.099701,0.688285,10.71692
63.061,-0.097867,0.686778,10.71745
63.081,-0.095964,0.685222,10.71814
63.101,-0.094061,0.683684,10.71866
63.121,-0.092388,0.682293,10.71925
63.141,-0.090758,0.680935,10.71976
63.18,-0.088829,0.679438,10.7204
63.2,-0.086764,0.677809,10.72096
63.22,-0.084708,0.676259,10.72153
63.24,-0.082847,0.674844,10.7221
63.26,-0.081028,0.673413,10.7226
63.28,-0.079217,0.672062,10.72334
63.3,-0.077406,0.670646,10.72399
63.32,-0.075562,0.66914,10.72437
63.34,-0.07375,0.667796,10.72496
63.36,-0.07182,0.666319,10.72556
63.38,-0.069882,0.664759,10.72609
63.4,-0.067994,0.663095,10.72674
63.42,-0.066182,0.661564,10.72732
63.459,-0.064495,0.660249,10.7279
63.479,-0.062733,0.658761,10.72843
63.499,-0.060894,0.657265,10.72908
63.519,-0.059013,0.655671,10.72962
63.539,-0.057107,0.654115,10.73012
63.559,-0.055267,0.652585,10.73067
63.579,-0.053444,0.651114,10.7313
63.599,-0.051745,0.649592,10.73184
63.619,-0.050188,0.648184,10.73239
63.639,-0.048505,0.646727,10.73291
63.659,-0.046713,0.645219,10.73338
63.679,-0.044755,0.643614,10.73385
63.699,-0.042663,0.641878,10.73459
63.738,-0.040812,0.640215,10.73517
63.758,-0.039201,0.638719,10.73572
63.778,-0.037697,0.637329,10.73663
63.798,-0.036722,0.635835,10.73669
63.818,-0.035447,0.634115,10.73705
63.838,-0.034326,0.632658,10.73737
63.858,-0.033286,0.631177,10.73784
63.878,-0.032136,0.629729,10.73821
63.898,-0.030967,0.628326,10.73855
63.918,-0.029764,0.626954,10.739
63.938,-0.028362,0.625519,10.73953
63.958,-0.026934,0.624095,10.73992
63.997,-0.025407,0.622676,10.74051
64.017,-0.023797,0.621085,10.74116
64.037,-0.022219,0.619458,10.74158
64.057,-0.020737,0.617822,10.74199
64.077,-0.019157,0.616306,10.74248
64.097,-0.017576,0.614794,10.74315
64.117,-0.016025,0.613212,10.74348
64.137,-0.014587,0.611723,10.74387
64.157,-0.013124,0.610279,10.74435
64.177,-0.011586,0.608718,10.74467
64.197,-0.009926,0.607215,10.74517
64.217,-0.008298,0.605744,10.74583
64.237,-0.006652,0.60423,10.74614
64.276,-0.005021,0.602808,10.74672
64.296,-0.003342,0.60131,10.74715
64.316,-0.001733,0.599884,10.74759
64.336,-0.000163,0.598468,10.74802
64.356,0.001471,0.596997,10.74856
64.376,0.003115,0.595544,10.74904
64.396,0.00464,0.594122,10.74949
64.416,0.006143,0.592704,10.74991
64.436,0.007638,0.591251,10.75036
64.456,0.009271,0.589768,10.75084
64.476,0.011008,0.588296,10.75135
64.496,0.012595,0.586741,10.75179
64.535,0.01404,0.585386,10.75225
64.555,0.01547,0.584056,10.75277
64.575,0.017045,0.582777,10.75317
64.595,0.018732,0.581254,10.75349
64.615,0.020373,0.579728,10.75396
64.635,0.021919,0.578321,10.75446
64.655,0.023372,0.576878,10.75485
64.675,0.024772,0.575466,10.75529
64.695,0.026165,0.574072,10.75567
64.715,0.027576,0.572656,10.75602
64.735,0.029082,0.571305,10.75651
64.755,0.030567,0.569884,10.75689
64.775,0.032037,0.568433,10.75719
64.814,0.033571,0.56688,10.75767
64.834,0.034966,0.565513,10.75819
64.854,0.036362,0.564243,10.75859
64.874,0.037815,0.562904,10.75891
64.894,0.039308,0.56151,10.75936
64.916,0.040757,0.560039,10.75986
64.954,0.042066,0.558666,10.76028
64.974,0.043471,0.557284,10.76062
64.996,0.044892,0.55596,10.76109
65.034,0.046269,0.554547,10.76151
65.073,0.047648,0.553245,10.76189
65.093,0.048974,0.55192,10.76235
65.113,0.05041,0.550587,10.7627
65.133,0.051879,0.549244,10.76305
65.153,0.05328,0.547859,10.76347
65.173,0.054506,0.546518,10.76393
65.193,0.055764,0.545242,10.76431
65.213,0.057016,0.543969,10.76464
65.233,0.058325,0.542715,10.76495
65.253,0.059681,0.541504,10.76543
65.273,0.061063,0.540104,10.7658
65.293,0.062323,0.538809,10.7662
65.313,0.063517,0.537524,10.76668
65.352,0.064766,0.53621,10.76705
65.372,0.066132,0.534874,10.76742
65.392,0.067492,0.533503,10.76781
65.412,0.068771,0.532268,10.76829
65.432,0.070036,0.530991,10.76863
65.452,0.071257,0.529685,10.76895
65.472,0.072474,0.528443,10.76936
65.492,0.073768,0.527098,10.76969
65.512,0.075004,0.525951,10.77016
65.532,0.076257,0.524747,10.7704
65.552,0.077512,0.523594,10.77076
65.572,0.078701,0.522372,10.77109
65.611,0.079953,0.521141,10.77145
65.631,0.081229,0.519915,10.77186
65.651,0.082455,0.518705,10.77228
65.671,0.083624,0.517367,10.77254
65.691,0.084809,0.516159,10.77291
65.711,0.085945,0.515008,10.77325
65.731,0.087135,0.513801,10.77363
65.751,0.088424,0.512638,10.7741
65.771,0.089738,0.511426,10.77437
65.791,0.090876,0.510244,10.77471
65.811,0.09203,0.509093,10.7751
65.831,0.093142,0.507899,10.77539
65.851,0.094131,0.506848,10.77567
65.89,0.095249,0.505721,10.77602
65.91,0.096339,0.504612,10.77639
65.93,0.097424,0.503362,10.77665
65.95,0.098513,0.502234,10.77698
65.97,0.099529,0.501109,10.77737
65.99,0.100593,0.49993,10.77764
66.01,0.101711,0.498788,10.77799
66.03,0.102832,0.497583,10.77831
66.05,0.103889,0.496377,10.77862
66.07,0.104942,0.4952,10.77886
66.09,0.105989,0.494034,10.77925
66.11,0.10704,0.492832,10.77958
66.149,0.108122,0.491797,10.77991
66.169,0.109244,0.490662,10.78022
66.189,0.110324,0.489537,10.7806
66.209,0.11137,0.488422,10.78099
66.229,0.112354,0.487299,10.78124
66.249,0.113326,0.486178,10.78155
66.269,0.11436,0.485107,10.78183
66.289,0.115403,0.484066,10.78223
66.309,0.116456,0.482964,10.78256
66.329,0.117461,0.481891,10.78278
66.349,0.118462,0.480802,10.78307
66.369,0.119545,0.479717,10.78344
66.389,0.120573,0.478656,10.78369
66.428,0.121596,0.477578,10.78394
66.448,0.122644,0.476446,10.78427
66.468,0.123637,0.475395,10.78458
66.488,0.124591,0.474329,10.78494
66.508,0.125426,0.473253,10.78525
66.528,0.126242,0.472219,10.78556
66.548,0.127148,0.471241,10.78586
66.568,0.128114,0.470349,10.78615
66.588,0.129075,0.469416,10.78648
66.608,0.130054,0.468409,10.78674
66.628,0.130886,0.467342,10.78706
66.648,0.131786,0.466291,10.78742
66.687,0.132689,0.465243,10.78776
66.707,0.133715,0.464174,10.78792
66.727,0.134701,0.463178,10.78825
66.747,0.135634,0.462199,10.78857
66.767,0.1365,0.461185,10.78882
66.787,0.137425,0.46011,10.78922
66.807,0.138353,0.459071,10.78944
66.827,0.13927,0.458086,10.78979
66.847,0.140302,0.457181,10.79014
66.867,0.14133,0.456299,10.79043
66.887,0.142291,0.455292,10.7907
66.907,0.143289,0.45429,10.791
66.946,0.144096,0.453265,10.79119
66.966,0.1449,0.452275,10.79155
66.986,0.145831,0.451295,10.79191
67.006,0.146697,0.45035,10.79217
67.026,0.1476,0.449522,10.79244
67.046,0.148596,0.448659,10.79272
67.066,0.149567,0.447686,10.79288
67.086,0.150562,0.446754,10.79323
67.111,0.151497,0.445768,10.79351
67.146,0.152347,0.444742,10.79377
67.166,0.153303,0.443663,10.79399
67.186,0.154247,0.4427,10.79426
67.225,0.155045,0.441935,10.79458
67.245,0.155791,0.441104,10.79477
67.265,0.156711,0.440151,10.7949
67.285,0.157689,0.439101,10.79513
67.305,0.158676,0.438185,10.79536
67.325,0.159619,0.437304,10.79572
67.345,0.160626,0.436439,10.79605
67.365,0.161527,0.435577,10.79631
67.385,0.162357,0.434724,10.79649
67.405,0.16319,0.433786,10.79677
67.425,0.16404,0.432809,10.79696
67.445,0.164873,0.432002,10.79725
67.465,0.165696,0.431187,10.7975
67.504,0.16667,0.430324,10.79783
67.524,0.16758,0.42944,10.798
67.544,0.168345,0.428664,10.79809
67.564,0.169087,0.428088,10.79826
67.584,0.170107,0.427552,10.79869
67.604,0.171283,0.426766,10.79911
67.624,0.172442,0.426001,10.79935
67.644,0.173483,0.425367,10.79973
67.664,0.174474,0.424687,10.80007
67.684,0.175448,0.423967,10.8003
67.704,0.176451,0.423354,10.80059
67.724,0.177477,0.42281,10.80079
67.763,0.178433,0.422098,10.80119
67.783,0.179545,0.421406,10.80147
67.803,0.180619,0.420863,10.80175
67.823,0.181743,0.420341,10.80204
67.843,0.182836,0.419748,10.80223
67.863,0.183958,0.419127,10.80262
67.883,0.184878,0.418714,10.80282
67.903,0.185352,0.418745,10.80302
67.923,0.185778,0.418758,10.8032
67.943,0.186471,0.418379,10.80329
67.963,0.187319,0.417707,10.80368
67.983,0.188144,0.416876,10.80398
68.003,0.188999,0.416023,10.80406
68.042,0.190092,0.415161,10.8043
68.062,0.191025,0.414422,10.80444
68.082,0.191706,0.41417,10.8047
68.102,0.192306,0.413955,10.80479
68.122,0.193085,0.413551,10.80506
68.142,0.194096,0.41266,10.80526
68.162,0.195135,0.411374,10.80545
68.182,0.196015,0.410102,10.80587
68.202,0.196814,0.408953,10.80609
68.222,0.197525,0.408104,10.80629
68.242,0.198285,0.407543,10.80652
68.262,0.199159,0.406966,10.80684
68.282,0.200113,0.40635,10.80716
68.321,0.200863,0.405807,10.80738
68.341,0.20145,0.405296,10.80761
68.361,0.202157,0.404669,10.80783
68.381,0.202834,0.404056,10.8081
68.401,0.203522,0.403368,10.80827
68.421,0.204271,0.402678,10.80849
68.441,0.204992,0.402036,10.80878
68.461,0.205729,0.401421,10.80898
68.481,0.206412,0.400919,10.80921
68.501,0.207079,0.400483,10.80943
68.521,0.207776,0.400072,10.80957
68.541,0.208457,0.399593,10.80983
68.561,0.209148,0.39897,10.81007
68.6,0.20962,0.398391,10.8103
68.62,0.210104,0.397982,10.81044
68.64,0.210756,0.397504,10.81061
68.66,0.2116,0.39696,10.81085
68.68,0.21241,0.396249,10.81113
68.7,0.213091,0.395576,10.81147
68.72,0.2136,0.394991,10.81156
68.74,0.213919,0.394651,10.81165
68.76,0.214311,0.394335,10.81181
68.78,0.21502,0.393727,10.812
68.8,0.215888,0.39303,10.81229
68.82,0.216679,0.392392,10.81253
68.84,0.217193,0.391952,10.81275
68.879,0.217779,0.39149,10.81297
68.899,0.218499,0.391019,10.81319
68.919,0.219142,0.390475,10.81347
68.939,0.219702,0.389876,10.81358
68.959,0.220168,0.389319,10.81375
68.979,0.220618,0.38877,10.81396
68.999,0.221123,0.388251,10.8142
69.019,0.221656,0.387751,10.81439
69.039,0.222402,0.387083,10.81457
69.059,0.223102,0.386479,10.81488
69.079,0.223609,0.386053,10.81507
69.099,0.224078,0.385639,10.81518
69.119,0.224655,0.385273,10.81536
69.158,0.225339,0.384727,10.81559
69.178,0.225911,0.384369,10.81588
69.198,0.226499,0.384013,10.81611
69.218,0.227078,0.383473,10.81628
69.238,0.227747,0.382862,10.81651
69.258,0.228491,0.38227,10.81668
69.281,0.229082,0.38182,10.81697
69.318,0.229555,0.381388,10.8171
69.338,0.230202,0.380824,10.8173
69.358,0.230918,0.380211,10.81752
69.378,0.231536,0.379662,10.81777
69.398,0.231953,0.37926,10.81793
69.418,0.23238,0.378847,10.8181
69.457,0.23308,0.378187,10.81828
69.477,0.233761,0.377552,10.81852
69.497,0.234307,0.377089,10.81877
69.517,0.234708,0.37675,10.81895
69.537,0.235066,0.376632,10.81911
69.557,0.235814,0.376317,10.81931
69.577,0.236763,0.375702,10.81947
69.597,0.237435,0.375126,10.81978
69.617,0.237647,0.374657,10.81999
69.637,0.237835,0.374282,10.82014
69.657,0.238277,0.373964,10.82028
69.677,0.239059,0.373543,10.82048
69.697,0.239755,0.373134,10.82065
69.736,0.240184,0.372683,10.82075
69.756,0.240559,0.372245,10.82093
69.776,0.240938,0.371971,10.82107
69.796,0.241473,0.371601,10.82121
69.816,0.242211,0.371119,10.82158
69.836,0.242819,0.370692,10.82182
69.856,0.243301,0.370294,10.82194
69.876,0.243776,0.369751,10.82204
69.896,0.244225,0.369394,10.82221
69.916,0.244609,0.369129,10.82238
69.936,0.245159,0.368763,10.82248
69.956,0.245719,0.368238,10.82269
69.976,0.246306,0.367656,10.82293
70.015,0.246897,0.366963,10.82313
70.035,0.24748,0.366406,10.82333
70.055,0.248031,0.365979,10.82356
70.075,0.248627,0.365537,10.82376
70.095,0.24933,0.364953,10.82392
70.115,0.249922,0.364392,10.82415
70.135,0.250362,0.363902,10.82429
70.155,0.250823,0.363446,10.82446
70.175,0.251357,0.363102,10.82467
70.215,0.251706,0.36267,10.82478
70.235,0.252099,0.362202,10.82487
70.274,0.252793,0.361598,10.82508
70.294,0.253587,0.361092,10.82535
70.314,0.254413,0.360539,10.82549
70.334,0.255111,0.360009,10.82568
70.354,0.255665,0.359528,10.82585
70.374,0.256148,0.359175,10.82605
70.394,0.256573,0.358787,10.82621
70.414,0.257082,0.358269,10.82637
70.434,0.257509,0.357778,10.82658
70.454,0.258037,0.357331,10.82669
70.474,0.258636,0.356933,10.82682
70.494,0.259255,0.356573,10.82703
70.514,0.259838,0.35613,10.82724
70.534,0.260262,0.355694,10.82737
70.573,0.260747,0.35526,10.82749
70.593,0.26133,0.354832,10.82764
70.613,0.262001,0.354374,10.82778
70.633,0.262558,0.35382,10.82793
70.653,0.262939,0.35336,10.82807
70.673,0.263286,0.353042,10.82821
70.693,0.263821,0.352766,10.8285
70.713,0.264515,0.352326,10.8287
70.733,0.265157,0.351779,10.82879
70.753,0.26562,0.351275,10.82898
70.773,0.265953,0.350819,10.82914
70.793,0.266434,0.350344,10.82937
70.813,0.267018,0.349912,10.8295
70.852,0.267524,0.349521,10.82968
70.872,0.268027,0.349071,10.82977
70.892,0.268534,0.348704,10.83003
70.912,0.26899,0.348226,10.83019
70.932,0.269417,0.34777,10.83038
70.952,0.269853,0.347315,10.83058
70.972,0.270381,0.346806,10.83072
70.992,0.270973,0.346283,10.83086
71.012,0.271431,0.345904,10.83102
71.032,0.271839,0.345602,10.83115
71.052,0.272305,0.345225,10.8313
71.072,0.272879,0.344739,10.83149
71.092,0.273439,0.344264,10.83166
71.112,0.273928,0.343941,10.83181
71.151,0.2743,0.343701,10.83199
71.171,0.274796,0.343331,10.8321
71.191,0.275404,0.342735,10.8322
71.211,0.275885,0.342181,10.83242
71.231,0.27636,0.341765,10.83251
71.251,0.27693,0.34142,10.83267
71.271,0.277438,0.341157,10.83289
71.291,0.277881,0.340774,10.83301
71.311,0.278322,0.340377,10.83315
71.331,0.278815,0.339927,10.83328
71.351,0.279274,0.339449,10.83343
71.371,0.279694,0.338937,10.83352
71.391,0.280166,0.338376,10.83365
71.43,0.280615,0.338141,10.83385
71.45,0.281078,0.337896,10.83397
71.473,0.281546,0.337539,10.83412
71.51,0.281996,0.337014,10.83427
71.531,0.282364,0.336584,10.83453
71.57,0.282901,0.336314,10.83463
71.59,0.283458,0.336065,10.83476
71.61,0.283965,0.335659,10.83494
71.63,0.284316,0.33525,10.8351
71.65,0.284593,0.334949,10.83522
71.67,0.284979,0.33464,10.83535
71.709,0.285538,0.33418,10.83548
71.729,0.286111,0.333702,10.83564
71.749,0.286546,0.333303,10.83582
71.769,0.286863,0.33296,10.83597
71.789,0.287137,0.332627,10.83606
71.809,0.287557,0.332188,10.83614
71.829,0.288127,0.331673,10.83639
71.849,0.288706,0.331144,10.8365
71.869,0.2892,0.330699,10.83661
71.889,0.289603,0.330295,10.8367
71.909,0.289973,0.329926,10.83681
71.929,0.290358,0.329568,10.83694
71.949,0.290809,0.329186,10.83707
71.988,0.291352,0.328719,10.83719
72.008,0.291873,0.328224,10.83736
72.028,0.292278,0.327813,10.83747
72.049,0.292589,0.327504,10.83762
72.088,0.293048,0.327143,10.83774
72.108,0.293599,0.326692,10.83796
72.128,0.294081,0.326276,10.83807
72.148,0.294515,0.325847,10.83819
72.168,0.294973,0.325462,10.83836
72.188,0.29542,0.325092,10.83842
72.208,0.295849,0.324739,10.8386
72.228,0.296298,0.324367,10.83876
72.248,0.296771,0.323963,10.83888
72.287,0.297171,0.323536,10.83902
72.307,0.297549,0.323134,10.83911
72.327,0.298013,0.322724,10.83929
72.347,0.29848,0.322368,10.83945
72.367,0.29893,0.322031,10.8396
72.387,0.299328,0.321682,10.83976
72.407,0.29973,0.3213,10.83986
72.427,0.300171,0.320896,10.83998
72.447,0.300682,0.320455,10.84014
72.467,0.301115,0.320015,10.84028
72.487,0.301532,0.319629,10.84045
72.507,0.301952,0.319234,10.84054
72.527,0.302407,0.318883,10.84067
72.566,0.302865,0.318462,10.84078
72.586,0.303331,0.318033,10.84092
72.606,0.303781,0.317629,10.84105
72.626,0.3042,0.317297,10.84113
72.646,0.304632,0.316989,10.84123
72.666,0.305048,0.316677,10.84132
72.686,0.305482,0.316319,10.84143
72.706,0.30588,0.315963,10.84158
72.726,0.306232,0.315617,10.84169
72.746,0.306537,0.315276,10.84182
72.766,0.306947,0.314876,10.84196
72.786,0.307484,0.314393,10.84211
72.806,0.307976,0.314024,10.84227
72.845,0.308396,0.313641,10.84241
72.865,0.30868,0.313339,10.84255
72.885,0.309023,0.313033,10.84262
72.905,0.309479,0.312672,10.84272
72.925,0.309989,0.312238,10.84289
72.945,0.310417,0.311824,10.84303
72.965,0.310716,0.311559,10.84315
72.985,0.31086,0.311484,10.8432
73.005,0.310999,0.311419,10.84325
73.025,0.3113,0.311216,10.84337
73.045,0.311811,0.310733,10.84352
73.065,0.312331,0.310164,10.84366
73.085,0.312672,0.30972,10.84389
73.124,0.312698,0.30954,10.84397
73.144,0.312867,0.30936,10.84412
73.164,0.313279,0.309107,10.84423
73.184,0.31385,0.308832,10.84437
73.204,0.314401,0.308499,10.84453
73.224,0.314809,0.308207,10.84466
73.244,0.314904,0.307971,10.84472
73.264,0.314819,0.307914,10.84479
73.284,0.31486,0.307766,10.84491
73.304,0.315187,0.307382,10.84505
73.324,0.315711,0.306841,10.84517
73.344,0.316263,0.306301,10.84533
73.364,0.31661,0.305944,10.84546
73.384,0.316884,0.30571,10.84562
73.423,0.317243,0.305368,10.84574
73.443,0.317929,0.304832,10.84659
73.463,0.318613,0.30447,10.84665
73.483,0.318151,0.304555,10.84654
73.503,0.317959,0.304203,10.8462
73.523,0.317274,0.304275,10.84591
73.543,0.316394,0.304754,10.84626
73.563,0.315626,0.304964,10.84612
73.583,0.315075,0.305173,10.84599
73.603,0.314751,0.305336,10.84611
73.623,0.314773,0.305263,10.84654
73.643,0.314918,0.304939,10.84657
73.665,0.314883,0.304634,10.84664
73.702,0.314656,0.30454,10.84671
73.722,0.314345,0.304543,10.84665
73.742,0.314078,0.304622,10.84686
73.762,0.313797,0.304635,10.84688
73.782,0.313531,0.304576,10.8469
73.802,0.313271,0.304549,10.847
73.822,0.313012,0.304504,10.8471
73.842,0.312839,0.30445,10.84715
73.862,0.312709,0.304392,10.84725
73.882,0.312569,0.30437,10.84739
73.902,0.312463,0.304312,10.84754
73.922,0.312363,0.304286,10.84762
73.942,0.3123,0.304181,10.8477
73.981,0.312251,0.304093,10.84784
74.001,0.31216,0.304015,10.84785
74.021,0.312238,0.303889,10.84834
74.041,0.312078,0.303872,10.84953
74.061,0.311904,0.303747,10.8494
74.081,0.311565,0.303916,10.84895
74.101,0.311046,0.30399,10.84877
74.121,0.310269,0.30446,10.84901
74.141,0.309605,0.304889,10.84896
74.161,0.309141,0.305159,10.84883
74.181,0.308738,0.305393,10.84883
74.201,0.308475,0.30555,10.84891
74.221,0.308209,0.305701,10.84893
74.26,0.307957,0.3059,10.84916
74.28,0.307825,0.305973,10.84936
74.3,0.307726,0.305991,10.84935
74.32,0.30748,0.306103,10.84938
74.34,0.307108,0.30638,10.84947
74.36,0.306777,0.306593,10.84951
74.38,0.306598,0.306758,10.84954
74.4,0.306479,0.306902,10.84957
74.42,0.306475,0.306982,10.84988
74.44,0.306543,0.306921,10.85003
74.46,0.306579,0.306887,10.85006
74.48,0.306538,0.306949,10.85013
74.5,0.306461,0.307033,10.85022
74.521,0.306447,0.307103,10.85037
74.559,0.306524,0.307073,10.85046
74.579,0.306501,0.307088,10.85058
74.599,0.306416,0.307141,10.85062
74.619,0.306349,0.307211,10.85069
74.639,0.306411,0.307189,10.85083
74.659,0.306488,0.307163,10.85093
74.679,0.306452,0.307211,10.85103
74.699,0.306389,0.30726,10.85115
74.719,0.306345,0.307283,10.85124
74.739,0.306332,0.307274,10.85135
74.759,0.306266,0.307235,10.85136
74.779,0.306257,0.307176,10.85148
74.799,0.306262,0.307208,10.8516
74.838,0.30617,0.307404,10.85167
74.858,0.306069,0.307488,10.85171
74.878,0.306065,0.307466,10.85177
74.898,0.30618,0.307378,10.85196
74.918,0.30629,0.307283,10.85209
74.938,0.306339,0.307286,10.85213
74.958,0.306308,0.307357,10.85218
74.978,0.30633,0.307413,10.85228
74.998,0.306409,0.307415,10.85238
75.018,0.306539,0.307414,10.85252
75.038,0.306639,0.307457,10.85259
75.058,0.306721,0.307483,10.85266
75.078,0.306794,0.307506,10.85271
75.117,0.306845,0.307528,10.85278
75.137,0.306943,0.307574,10.85292
75.157,0.307076,0.307573,10.85301
75.177,0.307242,0.307539,10.8531
75.197,0.307348,0.307525,10.85316
75.217,0.307389,0.307587,10.85323
75.237,0.307452,0.307617,10.8533
75.257,0.307612,0.307607,10.85345
75.277,0.307815,0.307573,10.85353
75.297,0.307983,0.307532,10.85359
75.317,0.308082,0.30751,10.85366
75.337,0.308139,0.307457,10.85375
75.357,0.308259,0.307404,10.85384
75.396,0.308408,0.307466,10.85394
75.416,0.308548,0.307456,10.85396
75.436,0.308705,0.307466,10.85403
75.456,0.308786,0.307484,10.85415
75.476,0.30887,0.307498,10.8543
75.496,0.308975,0.307489,10.85439
75.516,0.309189,0.307452,10.85449
75.536,0.309381,0.307392,10.85459
75.556,0.309523,0.307332,10.85459
75.576,0.309609,0.307338,10.85472
75.596,0.309717,0.307325,10.85473
75.616,0.309836,0.307296,10.85478
75.636,0.310055,0.307252,10.8549
75.675,0.310269,0.307321,10.85498
75.695,0.310425,0.307435,10.85506
75.715,0.310501,0.307561,10.85514
75.735,0.310643,0.307613,10.85522
75.755,0.310897,0.307546,10.8553
75.775,0.311125,0.30749,10.85538
75.795,0.311319,0.307473,10.85546
75.817,0.311521,0.307529,10.85555
75.855,0.311846,0.30768,10.85576
75.875,0.312178,0.307667,10.85583
75.895,0.312543,0.307554,10.85593
75.915,0.312759,0.30756,10.85594
75.954,0.312912,0.307764,10.85613
75.974,0.313217,0.307785,10.85617
75.994,0.3135,0.307745,10.85613
76.014,0.313681,0.307852,10.85613
76.035,0.313918,0.3081,10.8563
76.076,0.31435,0.308184,10.85635
76.114,0.314623,0.308332,10.85642
76.134,0.314748,0.308676,10.85685
76.154,0.315198,0.308726,10.85695
76.174,0.315509,0.308756,10.85672
76.194,0.315502,0.309019,10.85665
76.233,0.315771,0.309195,10.8567
76.253,0.316055,0.309334,10.85676
76.273,0.316376,0.30961,10.85688
76.293,0.316655,0.309916,10.85698
76.313,0.316828,0.310281,10.85704
76.333,0.317053,0.310545,10.85709
76.353,0.31731,0.310662,10.85697
76.373,0.31755,0.310838,10.85702
76.393,0.317939,0.31098,10.85712
76.413,0.318282,0.311137,10.85713
76.433,0.318588,0.311208,10.85712
76.453,0.318898,0.311487,10.85749
76.473,0.319255,0.31171,10.85771
76.493,0.31966,0.311895,10.85774
76.532,0.320051,0.312001,10.85783
76.552,0.320386,0.312063,10.85791
76.572,0.320672,0.312199,10.85803
76.592,0.320888,0.312382,10.85816
76.612,0.321153,0.312509,10.85812
76.632,0.32148,0.312596,10.85812
76.652,0.321791,0.312774,10.85823
76.672,0.322141,0.312996,10.85831
76.692,0.322446,0.313251,10.85841
76.712,0.322735,0.313431,10.85851
76.732,0.322987,0.313524,10.85857
76.772,0.323171,0.313689,10.85872
76.811,0.323278,0.313868,10.85881
76.831,0.323298,0.314076,10.85887
76.851,0.323278,0.314258,10.85891
76.871,0.32323,0.314462,10.85893
76.891,0.323203,0.314687,10.85902
76.911,0.323317,0.314835,10.8591
76.931,0.323443,0.315011,10.85922
76.951,0.323396,0.315155,10.8594
76.971,0.323423,0.31532,10.85942
76.991,0.323371,0.31551,10.85942
77.011,0.323359,0.315721,10.8594
77.031,0.323316,0.315975,10.8595
77.051,0.323269,0.316319,10.85955
77.071,0.32337,0.316529,10.8597
77.11,0.323538,0.316579,10.85975
77.13,0.323529,0.316694,10.8598
77.15,0.32342,0.316924,10.85981
77.17,0.323272,0.317128,10.85976
77.19,0.323237,0.317321,10.8598
77.21,0.323303,0.317481,10.85998
77.23,0.323423,0.317565,10.86013
77.25,0.323438,0.317688,10.86018
77.27,0.323426,0.317772,10.86019
77.29,0.323472,0.317863,10.86021
77.31,0.32356,0.318018,10.86037
77.33,0.323575,0.318215,10.86046
77.35,0.323543,0.318419,10.86045
77.389,0.323673,0.318469,10.86058
77.409,0.323844,0.318444,10.86059
77.429,0.324011,0.318412,10.86059
77.449,0.324201,0.318433,10.86072
77.469,0.324458,0.318415,10.86085
77.489,0.324666,0.318408,10.86091
77.509,0.324823,0.318433,10.86099
77.529,0.324942,0.318412,10.86106
77.549,0.32505,0.318387,10.8611
77.569,0.325248,0.318398,10.86117
77.589,0.325475,0.318479,10.86132
77.609,0.325737,0.318609,10.86148
77.629,0.325861,0.318661,10.86156
77.668,0.326001,0.318759,10.86162
77.688,0.326223,0.318811,10.86166
77.708,0.326467,0.318821,10.86165
77.728,0.326785,0.3188,10.86183
77.748,0.327167,0.31866,10.86196
77.768,0.32759,0.318391,10.86206
77.788,0.327847,0.3183,10.86219
77.808,0.328031,0.318548,10.86235
77.828,0.328223,0.318899,10.86236
77.848,0.328511,0.319013,10.86231
77.868,0.328904,0.31863,10.86241
77.888,0.329382,0.318431,10.86262
77.908,0.329556,0.31882,10.86268
77.928,0.329412,0.319719,10.86255
77.967,0.329368,0.320124,10.86261
77.987,0.329728,0.320059,10.86289
78.007,0.330162,0.319903,10.86303
78.027,0.330364,0.319898,10.86303
78.052,0.330734,0.31991,10.86319
78.087,0.331382,0.319631,10.86336
78.107,0.331738,0.319674,10.86355
78.127,0.331643,0.320038,10.86351
78.147,0.33147,0.320312,10.86332
78.167,0.33133,0.320568,10.86322
78.187,0.331281,0.320834,10.86336
78.207,0.331468,0.320968,10.86356
78.246,0.331904,0.320886,10.86356
78.266,0.332469,0.320813,10.86343
78.286,0.333207,0.320638,10.86353
78.306,0.333963,0.32047,10.86375
78.326,0.334493,0.320275,10.86383
78.346,0.334832,0.320101,10.86386
78.366,0.33523,0.319832,10.86387
78.386,0.335898,0.319422,10.86398
78.406,0.336721,0.319034,10.86415
