accel_time_list,accel_x_list,accel_y_list,accel_z_list
0.020000,-6.310000,-5.215000,6.407500
0.040000,-6.247500,-5.475000,6.565000
0.060000,-6.457500,-5.695000,6.732500
0.080000,-6.667500,-5.675000,6.720000
0.100000,-6.745000,-5.687500,6.580000
0.120000,-6.780000,-5.780000,6.447500
0.140000,-6.867500,-5.830000,6.387500
0.160000,-7.007500,-5.872500,6.392500
0.180000,-7.180000,-5.912500,6.362500
0.200000,-7.402500,-6.025000,6.272500
0.220000,-7.595000,-6.200000,6.207500
0.240000,-7.795000,-6.392500,6.215000
0.260000,-7.957500,-6.432500,6.217500
0.280000,-8.170000,-6.520000,6.142500
0.300000,-8.417500,-6.550000,6.040000
0.320000,-8.675000,-6.590000,5.937500
0.340000,-8.877500,-6.580000,5.835000
0.360000,-9.022500,-6.530000,5.715000
0.380000,-9.120000,-6.450000,5.572500
0.400000,-9.172500,-6.342500,5.422500
0.420000,-9.182500,-6.205000,5.282500
0.440000,-9.152500,-6.052500,5.155000
0.460000,-9.090000,-5.892500,5.032500
0.480000,-8.992500,-5.732500,4.905000
0.500000,-8.867500,-5.572500,4.775000
0.520000,-8.720000,-5.407500,4.642500
0.540000,-8.560000,-5.240000,4.515000
0.560000,-8.392500,-5.072500,4.397500
0.580000,-8.217500,-4.900000,4.282500
0.600000,-8.045000,-4.730000,4.165000
0.620000,-7.887500,-4.565000,4.050000
0.640000,-7.752500,-4.402500,3.937500
0.660000,-7.642500,-4.252500,3.825000
0.680000,-7.555000,-4.112500,3.715000
0.700000,-7.502500,-3.985000,3.595000
0.720000,-7.500000,-3.865000,3.462500
0.740000,-7.525000,-3.752500,3.325000
0.760000,-7.572500,-3.652500,3.182500
0.780000,-7.665000,-3.567500,3.030000
0.800000,-7.812500,-3.497500,2.880000
0.820000,-8.005000,-3.445000,2.730000
0.840000,-8.247500,-3.402500,2.580000
0.860000,-8.570000,-3.377500,2.427500
0.880000,-8.990000,-3.365000,2.270000
0.900000,-9.490000,-3.367500,2.107500
0.920000,-10.050000,-3.385000,1.947500
0.940000,-10.640000,-3.422500,1.802500
0.960000,-11.182500,-3.467500,1.692500
0.980000,-11.622500,-3.525000,1.615000
1.000000,-11.937500,-3.597500,1.560000
1.020000,-12.130000,-3.690000,1.510000
1.040000,-12.200000,-3.807500,1.460000
1.060000,-12.155000,-3.947500,1.402500
1.080000,-12.015000,-4.107500,1.342500
1.100000,-11.800000,-4.280000,1.277500
1.120000,-11.532500,-4.455000,1.215000
1.140000,-11.235000,-4.620000,1.162500
1.160000,-10.927500,-4.760000,1.130000
1.180000,-10.630000,-4.867500,1.112500
1.200000,-10.345000,-4.937500,1.115000
1.220000,-10.090000,-4.975000,1.122500
1.240000,-9.880000,-4.997500,1.132500
1.260000,-9.730000,-5.020000,1.137500
1.280000,-9.635000,-5.047500,1.137500
1.300000,-9.597500,-5.087500,1.127500
1.320000,-9.605000,-5.135000,1.110000
1.340000,-9.655000,-5.190000,1.087500
1.360000,-9.742500,-5.242500,1.057500
1.380000,-9.865000,-5.282500,1.025000
1.400000,-10.030000,-5.300000,0.987500
1.420000,-10.232500,-5.290000,0.945000
1.440000,-10.492500,-5.262500,0.897500
1.460000,-10.822500,-5.212500,0.855000
1.480000,-11.215000,-5.140000,0.822500
1.500000,-11.607500,-5.050000,0.800000
1.520000,-11.927500,-4.947500,0.780000
1.540000,-12.135000,-4.837500,0.765000
1.560000,-12.235000,-4.725000,0.752500
1.580000,-12.275000,-4.617500,0.737500
1.600000,-12.285000,-4.512500,0.722500
1.620000,-12.265000,-4.412500,0.710000
1.640000,-12.200000,-4.320000,0.700000
1.660000,-12.105000,-4.232500,0.690000
1.680000,-11.975000,-4.157500,0.677500
1.700000,-11.817500,-4.090000,0.665000
1.720000,-11.635000,-4.022500,0.652500
1.740000,-11.427500,-3.952500,0.637500
1.760000,-11.187500,-3.877500,0.625000
1.780000,-10.922500,-3.805000,0.612500
1.800000,-10.637500,-3.732500,0.602500
1.820000,-10.345000,-3.672500,0.595000
1.840000,-10.060000,-3.625000,0.590000
1.860000,-9.787500,-3.585000,0.585000
1.880000,-9.540000,-3.550000,0.580000
1.900000,-9.327500,-3.515000,0.575000
1.920000,-9.147500,-3.477500,0.570000
1.940000,-8.995000,-3.445000,0.565000
1.960000,-8.870000,-3.410000,0.560000
1.980000,-8.792500,-3.372500,0.557500
2.000000,-8.785000,-3.330000,0.555000
2.023000,-8.855000,-3.292500,0.557500
2.043000,-8.987500,-3.252500,0.565000
2.063000,-9.170000,-3.220000,0.580000
2.083000,-9.402500,-3.192500,0.597500
2.103000,-9.685000,-3.162500,0.602500
2.123000,-10.002500,-3.137500,0.595000
2.143000,-10.337500,-3.135000,0.597500
2.163000,-10.687500,-3.167500,0.625000
2.183000,-11.020000,-3.242500,0.670000
2.203000,-11.257500,-3.342500,0.717500
2.223000,-11.367500,-3.445000,0.762500
2.243000,-11.387500,-3.542500,0.802500
2.263000,-11.360000,-3.620000,0.842500
2.283000,-11.295000,-3.680000,0.885000
2.303000,-11.192500,-3.732500,0.930000
2.323000,-11.070000,-3.775000,0.982500
2.343000,-10.935000,-3.812500,1.040000
2.363000,-10.792500,-3.845000,1.100000
2.383000,-10.645000,-3.880000,1.162500
2.403000,-10.500000,-3.917500,1.225000
2.423000,-10.372500,-3.965000,1.282500
2.443000,-10.260000,-4.012500,1.330000
2.463000,-10.170000,-4.065000,1.372500
2.483000,-10.110000,-4.112500,1.412500
2.503000,-10.080000,-4.150000,1.445000
2.523000,-10.085000,-4.177500,1.470000
2.543000,-10.112500,-4.192500,1.490000
2.563000,-10.162500,-4.200000,1.502500
2.583000,-10.247500,-4.200000,1.510000
2.603000,-10.375000,-4.190000,1.515000
2.623000,-10.552500,-4.165000,1.510000
2.643000,-10.792500,-4.135000,1.505000
2.663000,-11.040000,-4.100000,1.500000
2.683000,-11.217500,-4.065000,1.495000
2.703000,-11.335000,-4.030000,1.482500
2.723000,-11.430000,-3.990000,1.462500
2.743000,-11.522500,-3.942500,1.437500
2.763000,-11.607500,-3.887500,1.410000
2.783000,-11.665000,-3.832500,1.382500
2.803000,-11.682500,-3.780000,1.355000
2.823000,-11.657500,-3.732500,1.325000
2.843000,-11.600000,-3.687500,1.292500
2.863000,-11.512500,-3.645000,1.262500
2.883000,-11.392500,-3.602500,1.232500
2.903000,-11.232500,-3.565000,1.202500
2.923000,-11.037500,-3.530000,1.177500
2.943000,-10.812500,-3.500000,1.152500
2.963000,-10.562500,-3.472500,1.130000
2.983000,-10.302500,-3.447500,1.110000
3.003000,-10.042500,-3.427500,1.092500
3.023000,-9.785000,-3.405000,1.080000
3.043000,-9.535000,-3.375000,1.067500
3.063000,-9.300000,-3.340000,1.057500
3.083000,-9.092500,-3.305000,1.055000
3.103000,-8.922500,-3.270000,1.055000
3.123000,-8.787500,-3.235000,1.062500
3.143000,-8.695000,-3.202500,1.067500
3.163000,-8.662500,-3.165000,1.072500
3.183000,-8.705000,-3.132500,1.072500
3.203000,-8.825000,-3.097500,1.070000
3.223000,-9.005000,-3.072500,1.067500
3.243000,-9.217500,-3.052500,1.065000
3.263000,-9.465000,-3.037500,1.062500
3.283000,-9.782500,-3.032500,1.060000
3.303000,-10.157500,-3.040000,1.070000
3.323000,-10.537500,-3.070000,1.095000
3.343000,-10.870000,-3.120000,1.125000
3.363000,-11.115000,-3.187500,1.160000
3.383000,-11.252500,-3.257500,1.202500
3.403000,-11.307500,-3.317500,1.250000
3.423000,-11.300000,-3.365000,1.297500
3.443000,-11.242500,-3.405000,1.345000
3.463000,-11.142500,-3.440000,1.390000
3.483000,-11.020000,-3.477500,1.432500
3.503000,-10.882500,-3.515000,1.475000
3.523000,-10.745000,-3.555000,1.517500
3.543000,-10.607500,-3.595000,1.560000
3.563000,-10.467500,-3.642500,1.602500
3.583000,-10.335000,-3.692500,1.642500
3.603000,-10.215000,-3.745000,1.677500
3.623000,-10.122500,-3.792500,1.705000
3.643000,-10.060000,-3.835000,1.727500
3.663000,-10.025000,-3.870000,1.745000
3.683000,-10.025000,-3.895000,1.755000
3.703000,-10.050000,-3.915000,1.762500
3.723000,-10.095000,-3.925000,1.765000
3.743000,-10.170000,-3.932500,1.760000
3.763000,-10.307500,-3.935000,1.755000
3.783000,-10.512500,-3.932500,1.747500
3.803000,-10.745000,-3.920000,1.735000
3.823000,-10.962500,-3.900000,1.717500
3.843000,-11.137500,-3.872500,1.695000
3.863000,-11.275000,-3.840000,1.670000
3.883000,-11.387500,-3.805000,1.642500
3.903000,-11.480000,-3.767500,1.615000
3.923000,-11.537500,-3.730000,1.587500
3.943000,-11.550000,-3.695000,1.562500
3.963000,-11.520000,-3.662500,1.532500
3.983000,-11.457500,-3.632500,1.502500
4.003000,-11.370000,-3.605000,1.470000
4.024000,-11.257500,-3.575000,1.440000
4.044000,-11.120000,-3.540000,1.410000
4.064000,-10.955000,-3.505000,1.385000
4.084000,-10.765000,-3.470000,1.360000
4.104000,-10.560000,-3.437500,1.337500
4.124000,-10.342500,-3.405000,1.315000
4.144000,-10.130000,-3.377500,1.295000
4.164000,-9.927500,-3.350000,1.275000
4.184000,-9.730000,-3.320000,1.257500
4.204000,-9.547500,-3.287500,1.242500
4.224000,-9.375000,-3.252500,1.225000
4.244000,-9.235000,-3.217500,1.207500
4.264000,-9.132500,-3.190000,1.192500
4.284000,-9.060000,-3.167500,1.175000
4.304000,-9.017500,-3.145000,1.157500
4.324000,-9.027500,-3.125000,1.142500
4.344000,-9.100000,-3.105000,1.135000
4.364000,-9.230000,-3.090000,1.132500
4.384000,-9.395000,-3.080000,1.130000
4.404000,-9.595000,-3.075000,1.122500
4.424000,-9.855000,-3.070000,1.110000
4.444000,-10.175000,-3.075000,1.100000
4.464000,-10.537500,-3.092500,1.102500
4.484000,-10.905000,-3.130000,1.127500
4.504000,-11.195000,-3.185000,1.167500
4.524000,-11.362500,-3.245000,1.207500
4.544000,-11.425000,-3.302500,1.250000
4.564000,-11.420000,-3.352500,1.290000
4.584000,-11.375000,-3.392500,1.332500
4.604000,-11.300000,-3.425000,1.375000
4.624000,-11.197500,-3.452500,1.415000
4.644000,-11.065000,-3.485000,1.455000
4.664000,-10.905000,-3.520000,1.492500
4.684000,-10.737500,-3.560000,1.527500
4.704000,-10.577500,-3.605000,1.560000
4.724000,-10.432500,-3.655000,1.590000
4.744000,-10.302500,-3.705000,1.612500
4.764000,-10.202500,-3.750000,1.632500
4.784000,-10.127500,-3.790000,1.645000
4.804000,-10.080000,-3.822500,1.650000
4.824000,-10.060000,-3.850000,1.652500
4.844000,-10.070000,-3.872500,1.650000
4.864000,-10.112500,-3.890000,1.640000
4.884000,-10.200000,-3.902500,1.630000
4.904000,-10.337500,-3.912500,1.620000
4.924000,-10.532500,-3.917500,1.607500
4.944000,-10.762500,-3.920000,1.595000
4.964000,-10.982500,-3.917500,1.575000
4.984000,-11.175000,-3.910000,1.550000
5.004000,-11.337500,-3.887500,1.517500
5.024000,-11.495000,-3.855000,1.487500
5.044000,-11.637500,-3.810000,1.460000
5.064000,-11.742500,-3.760000,1.435000
5.084000,-11.792500,-3.705000,1.412500
5.104000,-11.790000,-3.650000,1.392500
5.124000,-11.745000,-3.600000,1.370000
5.144000,-11.665000,-3.555000,1.345000
5.164000,-11.552500,-3.517500,1.317500
5.184000,-11.410000,-3.485000,1.290000
5.204000,-11.240000,-3.457500,1.262500
5.224000,-11.045000,-3.430000,1.232500
5.244000,-10.830000,-3.400000,1.205000
5.264000,-10.592500,-3.367500,1.177500
5.284000,-10.337500,-3.335000,1.155000
5.304000,-10.075000,-3.300000,1.132500
5.324000,-9.815000,-3.267500,1.115000
5.344000,-9.567500,-3.235000,1.097500
5.364000,-9.342500,-3.197500,1.085000
5.384000,-9.145000,-3.157500,1.070000
5.404000,-8.970000,-3.117500,1.057500
5.424000,-8.835000,-3.082500,1.042500
5.444000,-8.765000,-3.050000,1.030000
5.464000,-8.775000,-3.025000,1.020000
5.484000,-8.857500,-3.005000,1.012500
5.504000,-9.000000,-2.997500,1.010000
5.524000,-9.195000,-2.992500,1.005000
5.544000,-9.460000,-2.992500,0.990000
5.564000,-9.802500,-2.995000,0.970000
5.584000,-10.225000,-3.010000,0.957500
5.604000,-10.712500,-3.042500,0.962500
5.624000,-11.202500,-3.102500,0.982500
5.644000,-11.577500,-3.177500,1.002500
5.664000,-11.775000,-3.260000,1.025000
5.684000,-11.835000,-3.342500,1.052500
5.704000,-11.815000,-3.410000,1.085000
5.724000,-11.750000,-3.465000,1.117500
5.744000,-11.635000,-3.507500,1.150000
5.764000,-11.472500,-3.552500,1.182500
5.784000,-11.280000,-3.600000,1.212500
5.804000,-11.075000,-3.652500,1.245000
5.824000,-10.875000,-3.710000,1.277500
5.844000,-10.685000,-3.772500,1.307500
5.864000,-10.512500,-3.832500,1.332500
5.884000,-10.370000,-3.885000,1.352500
5.904000,-10.265000,-3.930000,1.370000
5.924000,-10.192500,-3.967500,1.382500
5.944000,-10.160000,-4.005000,1.395000
5.964000,-10.162500,-4.035000,1.400000
5.984000,-10.187500,-4.062500,1.402500
6.004000,-10.225000,-4.082500,1.400000
6.025000,-10.287500,-4.097500,1.392500
6.045000,-10.405000,-4.102500,1.385000
6.065000,-10.595000,-4.102500,1.377500
6.085000,-10.835000,-4.097500,1.365000
6.105000,-11.087500,-4.080000,1.350000
6.125000,-11.317500,-4.055000,1.332500
6.145000,-11.502500,-4.027500,1.312500
6.165000,-11.620000,-3.997500,1.292500
6.185000,-11.692500,-3.960000,1.272500
6.205000,-11.745000,-3.917500,1.252500
6.225000,-11.772500,-3.875000,1.235000
6.245000,-11.765000,-3.832500,1.215000
6.265000,-11.722500,-3.792500,1.195000
6.285000,-11.650000,-3.757500,1.175000
6.305000,-11.552500,-3.725000,1.152500
6.325000,-11.427500,-3.695000,1.130000
6.345000,-11.282500,-3.660000,1.107500
6.365000,-11.110000,-3.622500,1.085000
6.385000,-10.912500,-3.580000,1.067500
6.405000,-10.695000,-3.535000,1.047500
6.425000,-10.460000,-3.492500,1.032500
6.445000,-10.217500,-3.455000,1.017500
6.465000,-9.975000,-3.422500,1.005000
6.485000,-9.742500,-3.392500,0.992500
6.505000,-9.520000,-3.362500,0.982500
6.525000,-9.315000,-3.330000,0.972500
6.545000,-9.130000,-3.297500,0.962500
6.565000,-9.000000,-3.265000,0.950000
6.585000,-8.927500,-3.235000,0.940000
6.605000,-8.902500,-3.207500,0.927500
6.625000,-8.925000,-3.182500,0.915000
6.645000,-9.022500,-3.162500,0.902500
6.665000,-9.187500,-3.147500,0.892500
6.685000,-9.407500,-3.137500,0.887500
6.705000,-9.660000,-3.132500,0.882500
6.725000,-9.937500,-3.135000,0.882500
6.745000,-10.262500,-3.152500,0.885000
6.765000,-10.617500,-3.185000,0.890000
6.785000,-10.952500,-3.230000,0.902500
6.805000,-11.235000,-3.280000,0.925000
6.825000,-11.450000,-3.332500,0.955000
6.845000,-11.567500,-3.390000,0.990000
6.865000,-11.597500,-3.442500,1.027500
6.885000,-11.562500,-3.480000,1.070000
6.905000,-11.490000,-3.512500,1.110000
6.925000,-11.372500,-3.547500,1.150000
6.945000,-11.210000,-3.592500,1.182500
6.965000,-11.017500,-3.642500,1.210000
6.985000,-10.810000,-3.700000,1.235000
7.005000,-10.607500,-3.760000,1.260000
7.025000,-10.422500,-3.822500,1.282500
7.045000,-10.267500,-3.882500,1.302500
7.065000,-10.142500,-3.935000,1.320000
7.085000,-10.042500,-3.980000,1.337500
7.105000,-9.972500,-4.017500,1.347500
7.125000,-9.942500,-4.050000,1.357500
7.145000,-9.950000,-4.080000,1.362500
7.165000,-9.990000,-4.107500,1.362500
7.185000,-10.057500,-4.130000,1.355000
7.205000,-10.167500,-4.147500,1.345000
7.225000,-10.325000,-4.160000,1.335000
7.245000,-10.512500,-4.157500,1.327500
7.265000,-10.707500,-4.137500,1.317500
7.285000,-10.882500,-4.100000,1.305000
7.305000,-11.037500,-4.065000,1.295000
7.325000,-11.205000,-4.050000,1.282500
7.345000,-11.367500,-4.037500,1.270000
7.365000,-11.490000,-4.020000,1.257500
7.385000,-11.567500,-3.995000,1.245000
7.405000,-11.600000,-3.982500,1.222500
7.425000,-11.592500,-3.970000,1.200000
7.445000,-11.565000,-3.940000,1.182500
7.465000,-11.507500,-3.905000,1.170000
7.485000,-11.420000,-3.882500,1.162500
7.505000,-11.310000,-3.885000,1.152500
7.525000,-11.175000,-3.880000,1.145000
7.545000,-11.017500,-3.845000,1.147500
7.565000,-10.835000,-3.790000,1.160000
7.585000,-10.652500,-3.732500,1.192500
7.605000,-10.482500,-3.682500,1.230000
7.625000,-10.302500,-3.637500,1.265000
7.645000,-10.095000,-3.585000,1.302500
7.665000,-9.862500,-3.540000,1.347500
7.685000,-9.632500,-3.510000,1.402500
7.705000,-9.412500,-3.477500,1.460000
7.725000,-9.190000,-3.435000,1.515000
7.745000,-8.967500,-3.387500,1.577500
7.765000,-8.777500,-3.340000,1.652500
7.785000,-8.602500,-3.285000,1.737500
7.805000,-8.417500,-3.225000,1.825000
7.825000,-8.252500,-3.187500,1.915000
7.845000,-8.132500,-3.177500,2.007500
7.865000,-8.080000,-3.155000,2.110000
7.885000,-7.977500,-3.150000,2.212500
7.905000,-7.855000,-3.157500,2.325000
7.925000,-7.757500,-3.200000,2.437500
7.945000,-7.750000,-3.260000,2.597500
7.965000,-7.715000,-3.307500,2.790000
7.985000,-7.687500,-3.345000,2.997500
8.005000,-7.642500,-3.387500,3.217500
