gyro_time_list,gyro_x_list,gyro_y_list,gyro_z_list
0.011000,-0.091000,0.051000,0.003000
0.031000,-0.062000,0.079000,0.028000
0.051000,-0.045000,0.099000,0.038000
0.071000,-0.025000,0.113000,0.055000
0.091000,-0.005000,0.120000,0.097000
0.111000,-0.011000,0.121000,0.150000
0.131000,-0.020000,0.133000,0.187000
0.151000,-0.040000,0.138000,0.237000
0.171000,-0.073000,0.132000,0.251000
0.191000,-0.128000,0.140000,0.286000
0.211000,-0.178000,0.167000,0.325000
0.231000,-0.222000,0.204000,0.377000
0.251000,-0.255000,0.250000,0.442000
0.271000,-0.289000,0.308000,0.518000
0.291000,-0.345000,0.371000,0.597000
0.311000,-0.408000,0.434000,0.683000
0.331000,-0.465000,0.499000,0.779000
0.351000,-0.554000,0.562000,0.873000
0.371000,-0.663000,0.614000,0.967000
0.391000,-0.693000,0.652000,1.069000
0.411000,-0.639000,0.687000,1.169000
0.431000,-0.572000,0.723000,1.257000
0.451000,-0.532000,0.752000,1.330000
0.471000,-0.525000,0.774000,1.385000
0.491000,-0.531000,0.789000,1.425000
0.511000,-0.539000,0.801000,1.456000
0.531000,-0.557000,0.806000,1.479000
0.551000,-0.586000,0.805000,1.492000
0.571000,-0.617000,0.799000,1.502000
0.591000,-0.636000,0.788000,1.510000
0.611000,-0.647000,0.775000,1.518000
0.631000,-0.660000,0.759000,1.522000
0.651000,-0.674000,0.739000,1.521000
0.671000,-0.683000,0.717000,1.518000
0.691000,-0.687000,0.693000,1.511000
0.711000,-0.692000,0.667000,1.500000
0.731000,-0.697000,0.639000,1.486000
0.751000,-0.698000,0.610000,1.469000
0.771000,-0.696000,0.580000,1.450000
0.791000,-0.695000,0.547000,1.428000
0.811000,-0.695000,0.514000,1.403000
0.831000,-0.693000,0.480000,1.375000
0.851000,-0.691000,0.443000,1.345000
0.871000,-0.689000,0.406000,1.314000
0.891000,-0.685000,0.369000,1.282000
0.911000,-0.679000,0.333000,1.249000
0.931000,-0.674000,0.296000,1.217000
0.951000,-0.669000,0.260000,1.183000
0.971000,-0.664000,0.224000,1.149000
0.991000,-0.657000,0.189000,1.114000
1.011000,-0.650000,0.154000,1.077000
1.031000,-0.645000,0.121000,1.040000
1.051000,-0.639000,0.089000,1.002000
1.071000,-0.631000,0.058000,0.963000
1.091000,-0.621000,0.026000,0.925000
1.111000,-0.612000,-0.007000,0.887000
1.131000,-0.603000,-0.040000,0.848000
1.151000,-0.593000,-0.074000,0.808000
1.171000,-0.582000,-0.109000,0.768000
1.191000,-0.571000,-0.146000,0.727000
1.211000,-0.559000,-0.185000,0.684000
1.231000,-0.546000,-0.224000,0.638000
1.251000,-0.529000,-0.262000,0.593000
1.271000,-0.514000,-0.297000,0.551000
1.291000,-0.503000,-0.328000,0.510000
1.311000,-0.496000,-0.355000,0.471000
1.331000,-0.490000,-0.378000,0.435000
1.351000,-0.481000,-0.395000,0.401000
1.371000,-0.474000,-0.409000,0.368000
1.391000,-0.472000,-0.427000,0.336000
1.411000,-0.476000,-0.450000,0.301000
1.431000,-0.485000,-0.475000,0.267000
1.451000,-0.495000,-0.508000,0.235000
1.471000,-0.497000,-0.554000,0.208000
1.491000,-0.488000,-0.572000,0.171000
1.511000,-0.485000,-0.506000,0.113000
1.531000,-0.467000,-0.362000,0.058000
1.551000,-0.374000,-0.191000,0.048000
1.571000,-0.268000,-0.281000,0.050000
1.591000,-0.301000,-0.455000,0.111000
1.611000,-0.332000,-0.637000,-0.040000
1.631000,-0.229000,-0.827000,-0.186000
1.651000,-0.176000,-0.985000,-0.179000
1.671000,-0.221000,-1.091000,-0.057000
1.691000,-0.231000,-1.205000,0.133000
1.711000,-0.229000,-1.305000,0.288000
1.731000,-0.283000,-1.305000,0.350000
1.751000,-0.331000,-1.113000,0.268000
1.771000,-0.292000,-0.796000,0.148000
1.791000,-0.199000,-0.455000,0.069000
1.811000,-0.134000,-0.098000,0.007000
1.831000,-0.110000,0.263000,-0.011000
1.851000,-0.065000,0.569000,-0.003000
1.871000,0.008000,0.821000,0.040000
1.891000,0.082000,0.928000,0.102000
1.911000,0.034000,0.902000,0.130000
1.931000,-0.078000,0.785000,0.104000
1.951000,-0.149000,0.653000,0.063000
1.971000,-0.140000,0.549000,0.027000
1.991000,-0.100000,0.459000,0.002000
2.011000,-0.095000,0.370000,-0.010000
2.031000,-0.143000,0.287000,-0.020000
2.051000,-0.210000,0.222000,-0.030000
2.071000,-0.265000,0.183000,-0.037000
2.091000,-0.292000,0.172000,-0.043000
2.111000,-0.298000,0.178000,-0.045000
2.131000,-0.299000,0.191000,-0.046000
2.151000,-0.294000,0.199000,-0.048000
2.171000,-0.281000,0.199000,-0.052000
2.191000,-0.266000,0.186000,-0.059000
2.211000,-0.247000,0.167000,-0.069000
2.231000,-0.216000,0.148000,-0.080000
2.251000,-0.173000,0.135000,-0.088000
2.271000,-0.131000,0.128000,-0.092000
2.291000,-0.105000,0.125000,-0.096000
2.311000,-0.097000,0.123000,-0.099000
2.331000,-0.096000,0.119000,-0.101000
2.351000,-0.094000,0.115000,-0.102000
2.371000,-0.092000,0.110000,-0.102000
2.391000,-0.093000,0.106000,-0.103000
2.411000,-0.093000,0.101000,-0.103000
2.431000,-0.093000,0.098000,-0.104000
2.451000,-0.091000,0.095000,-0.104000
2.471000,-0.090000,0.092000,-0.103000
2.491000,-0.089000,0.089000,-0.103000
2.511000,-0.087000,0.086000,-0.102000
2.531000,-0.083000,0.084000,-0.101000
2.551000,-0.079000,0.082000,-0.101000
2.571000,-0.075000,0.080000,-0.100000
2.591000,-0.072000,0.078000,-0.100000
2.611000,-0.070000,0.076000,-0.100000
2.631000,-0.070000,0.075000,-0.099000
2.651000,-0.068000,0.073000,-0.099000
2.671000,-0.067000,0.072000,-0.098000
2.691000,-0.064000,0.072000,-0.097000
2.711000,-0.061000,0.072000,-0.096000
2.731000,-0.058000,0.072000,-0.096000
2.751000,-0.055000,0.072000,-0.095000
2.771000,-0.053000,0.072000,-0.094000
2.791000,-0.051000,0.071000,-0.094000
2.811000,-0.049000,0.070000,-0.093000
2.831000,-0.048000,0.070000,-0.092000
2.851000,-0.046000,0.069000,-0.092000
2.871000,-0.045000,0.068000,-0.091000
2.891000,-0.044000,0.068000,-0.091000
2.911000,-0.043000,0.068000,-0.090000
2.931000,-0.041000,0.068000,-0.090000
2.951000,-0.039000,0.067000,-0.089000
2.971000,-0.037000,0.067000,-0.088000
2.991000,-0.036000,0.066000,-0.087000
3.011000,-0.035000,0.065000,-0.086000
3.031000,-0.034000,0.064000,-0.085000
3.051000,-0.034000,0.064000,-0.084000
3.071000,-0.034000,0.063000,-0.082000
3.091000,-0.034000,0.062000,-0.081000
3.111000,-0.034000,0.062000,-0.079000
3.131000,-0.033000,0.062000,-0.078000
3.151000,-0.033000,0.061000,-0.077000
3.171000,-0.033000,0.061000,-0.075000
3.191000,-0.034000,0.061000,-0.074000
3.211000,-0.034000,0.061000,-0.073000
3.231000,-0.034000,0.061000,-0.072000
3.251000,-0.034000,0.060000,-0.071000
3.271000,-0.034000,0.060000,-0.070000
3.291000,-0.034000,0.059000,-0.070000
3.311000,-0.034000,0.058000,-0.069000
3.331000,-0.034000,0.058000,-0.068000
3.351000,-0.034000,0.057000,-0.068000
3.371000,-0.034000,0.057000,-0.067000
3.391000,-0.034000,0.056000,-0.067000
3.411000,-0.035000,0.056000,-0.066000
3.431000,-0.035000,0.055000,-0.065000
3.451000,-0.036000,0.054000,-0.064000
3.471000,-0.036000,0.054000,-0.064000
3.491000,-0.036000,0.053000,-0.063000
3.511000,-0.036000,0.053000,-0.063000
3.531000,-0.036000,0.052000,-0.063000
3.551000,-0.037000,0.052000,-0.062000
3.571000,-0.037000,0.051000,-0.062000
3.591000,-0.038000,0.051000,-0.061000
3.611000,-0.038000,0.051000,-0.061000
3.631000,-0.038000,0.050000,-0.060000
3.651000,-0.039000,0.050000,-0.060000
3.671000,-0.039000,0.050000,-0.059000
3.691000,-0.039000,0.049000,-0.059000
3.711000,-0.039000,0.049000,-0.058000
3.731000,-0.039000,0.048000,-0.058000
3.751000,-0.039000,0.048000,-0.057000
3.771000,-0.039000,0.048000,-0.057000
3.791000,-0.040000,0.047000,-0.056000
3.811000,-0.040000,0.047000,-0.056000
3.831000,-0.040000,0.046000,-0.055000
3.851000,-0.041000,0.046000,-0.055000
3.871000,-0.041000,0.045000,-0.054000
3.891000,-0.042000,0.045000,-0.053000
3.911000,-0.043000,0.044000,-0.053000
3.931000,-0.044000,0.044000,-0.052000
3.951000,-0.045000,0.043000,-0.052000
3.971000,-0.045000,0.043000,-0.052000
3.991000,-0.046000,0.042000,-0.051000
4.011000,-0.046000,0.042000,-0.051000
4.031000,-0.046000,0.041000,-0.051000
4.051000,-0.046000,0.041000,-0.051000
4.071000,-0.046000,0.041000,-0.050000
4.091000,-0.046000,0.041000,-0.050000
4.111000,-0.046000,0.040000,-0.049000
4.131000,-0.046000,0.040000,-0.049000
4.151000,-0.046000,0.040000,-0.049000
4.171000,-0.045000,0.040000,-0.048000
4.191000,-0.045000,0.040000,-0.048000
4.211000,-0.045000,0.039000,-0.047000
4.231000,-0.045000,0.039000,-0.047000
4.251000,-0.045000,0.039000,-0.047000
4.271000,-0.045000,0.039000,-0.046000
4.291000,-0.045000,0.039000,-0.046000
4.311000,-0.045000,0.039000,-0.045000
4.331000,-0.045000,0.038000,-0.045000
4.351000,-0.045000,0.038000,-0.044000
4.371000,-0.045000,0.038000,-0.044000
4.391000,-0.045000,0.038000,-0.043000
4.411000,-0.045000,0.038000,-0.043000
4.431000,-0.045000,0.038000,-0.042000
4.451000,-0.045000,0.038000,-0.042000
4.471000,-0.045000,0.038000,-0.042000
4.491000,-0.045000,0.037000,-0.042000
4.511000,-0.045000,0.037000,-0.041000
4.531000,-0.045000,0.037000,-0.041000
4.551000,-0.045000,0.037000,-0.041000
4.571000,-0.045000,0.037000,-0.041000
4.591000,-0.045000,0.037000,-0.041000
4.611000,-0.045000,0.037000,-0.040000
4.631000,-0.045000,0.037000,-0.040000
4.651000,-0.045000,0.037000,-0.040000
4.671000,-0.045000,0.036000,-0.039000
4.691000,-0.045000,0.036000,-0.039000
4.711000,-0.045000,0.036000,-0.039000
4.731000,-0.045000,0.036000,-0.038000
4.751000,-0.046000,0.036000,-0.038000
4.771000,-0.046000,0.036000,-0.038000
4.791000,-0.046000,0.036000,-0.037000
4.811000,-0.046000,0.035000,-0.037000
4.831000,-0.046000,0.035000,-0.037000
4.851000,-0.046000,0.035000,-0.037000
4.871000,-0.046000,0.035000,-0.036000
4.891000,-0.046000,0.035000,-0.036000
4.911000,-0.046000,0.035000,-0.036000
4.931000,-0.046000,0.035000,-0.036000
4.951000,-0.046000,0.034000,-0.036000
4.971000,-0.047000,0.034000,-0.035000
4.991000,-0.047000,0.034000,-0.035000
5.011000,-0.047000,0.034000,-0.035000
5.031000,-0.047000,0.034000,-0.035000
5.051000,-0.047000,0.034000,-0.034000
5.071000,-0.047000,0.034000,-0.034000
5.091000,-0.047000,0.034000,-0.034000
5.111000,-0.047000,0.034000,-0.034000
5.131000,-0.048000,0.033000,-0.034000
5.151000,-0.048000,0.033000,-0.033000
5.171000,-0.048000,0.033000,-0.033000
5.191000,-0.048000,0.033000,-0.033000
5.211000,-0.048000,0.033000,-0.033000
5.231000,-0.048000,0.033000,-0.033000
5.251000,-0.048000,0.033000,-0.032000
5.271000,-0.048000,0.032000,-0.032000
5.291000,-0.048000,0.032000,-0.032000
5.311000,-0.048000,0.032000,-0.032000
5.331000,-0.048000,0.032000,-0.032000
5.351000,-0.048000,0.032000,-0.031000
5.371000,-0.048000,0.032000,-0.031000
5.391000,-0.048000,0.032000,-0.031000
5.411000,-0.048000,0.032000,-0.031000
5.431000,-0.048000,0.032000,-0.031000
5.451000,-0.048000,0.032000,-0.031000
5.471000,-0.048000,0.032000,-0.031000
5.491000,-0.048000,0.032000,-0.031000
5.511000,-0.048000,0.032000,-0.032000
5.531000,-0.049000,0.031000,-0.032000
5.551000,-0.049000,0.031000,-0.032000
5.571000,-0.049000,0.032000,-0.032000
5.591000,-0.049000,0.032000,-0.032000
5.611000,-0.049000,0.033000,-0.031000
5.631000,-0.049000,0.033000,-0.031000
5.651000,-0.050000,0.034000,-0.030000
5.671000,-0.050000,0.034000,-0.028000
5.691000,-0.051000,0.035000,-0.027000
5.711000,-0.054000,0.035000,-0.026000
5.731000,-0.058000,0.035000,-0.025000
5.751000,-0.063000,0.035000,-0.024000
5.771000,-0.070000,0.034000,-0.023000
5.791000,-0.078000,0.033000,-0.022000
5.811000,-0.087000,0.031000,-0.022000
5.831000,-0.096000,0.029000,-0.022000
5.851000,-0.100000,0.027000,-0.022000
5.871000,-0.099000,0.024000,-0.021000
5.891000,-0.094000,0.022000,-0.022000
5.911000,-0.090000,0.019000,-0.022000
5.931000,-0.088000,0.017000,-0.023000
5.951000,-0.089000,0.016000,-0.025000
5.971000,-0.092000,0.015000,-0.027000
5.991000,-0.094000,0.015000,-0.030000
6.011000,-0.096000,0.015000,-0.032000
6.031000,-0.099000,0.015000,-0.035000
6.051000,-0.101000,0.015000,-0.038000
6.071000,-0.102000,0.015000,-0.040000
6.091000,-0.103000,0.016000,-0.042000
6.111000,-0.104000,0.018000,-0.044000
6.131000,-0.104000,0.022000,-0.044000
6.151000,-0.100000,0.027000,-0.044000
6.171000,-0.093000,0.033000,-0.043000
6.191000,-0.088000,0.040000,-0.042000
6.211000,-0.088000,0.047000,-0.042000
6.231000,-0.092000,0.052000,-0.043000
6.251000,-0.098000,0.057000,-0.044000
6.271000,-0.106000,0.061000,-0.045000
6.291000,-0.115000,0.065000,-0.047000
6.311000,-0.122000,0.067000,-0.050000
6.331000,-0.121000,0.070000,-0.052000
6.351000,-0.115000,0.072000,-0.055000
6.371000,-0.106000,0.074000,-0.057000
6.391000,-0.094000,0.076000,-0.059000
6.411000,-0.075000,0.078000,-0.062000
6.431000,-0.050000,0.080000,-0.064000
6.451000,-0.025000,0.082000,-0.065000
6.471000,-0.002000,0.085000,-0.068000
6.491000,0.018000,0.087000,-0.071000
6.511000,0.034000,0.089000,-0.074000
6.531000,0.045000,0.093000,-0.078000
6.551000,0.050000,0.097000,-0.080000
6.571000,0.049000,0.103000,-0.082000
6.591000,0.044000,0.108000,-0.084000
6.611000,0.035000,0.115000,-0.084000
6.631000,0.023000,0.122000,-0.084000
6.651000,0.011000,0.128000,-0.082000
6.671000,0.002000,0.133000,-0.080000
6.691000,-0.006000,0.138000,-0.078000
6.711000,-0.014000,0.143000,-0.075000
6.731000,-0.022000,0.147000,-0.073000
6.751000,-0.028000,0.150000,-0.070000
6.771000,-0.035000,0.154000,-0.067000
6.791000,-0.041000,0.158000,-0.064000
6.811000,-0.048000,0.162000,-0.063000
6.831000,-0.052000,0.165000,-0.061000
6.851000,-0.057000,0.167000,-0.060000
6.871000,-0.061000,0.169000,-0.060000
6.891000,-0.064000,0.172000,-0.059000
6.911000,-0.067000,0.175000,-0.058000
6.931000,-0.071000,0.177000,-0.057000
6.951000,-0.076000,0.179000,-0.057000
6.971000,-0.082000,0.181000,-0.057000
6.991000,-0.088000,0.183000,-0.057000
7.011000,-0.093000,0.183000,-0.057000
7.031000,-0.100000,0.184000,-0.057000
7.051000,-0.106000,0.185000,-0.058000
7.071000,-0.111000,0.185000,-0.059000
7.091000,-0.114000,0.186000,-0.060000
7.111000,-0.116000,0.187000,-0.060000
7.131000,-0.117000,0.187000,-0.061000
7.151000,-0.117000,0.188000,-0.062000
7.171000,-0.118000,0.188000,-0.062000
7.191000,-0.118000,0.188000,-0.063000
7.211000,-0.117000,0.189000,-0.063000
7.231000,-0.115000,0.189000,-0.063000
7.251000,-0.112000,0.189000,-0.062000
7.271000,-0.111000,0.189000,-0.062000
7.291000,-0.110000,0.189000,-0.061000
7.311000,-0.111000,0.188000,-0.061000
7.331000,-0.111000,0.187000,-0.061000
7.351000,-0.110000,0.186000,-0.061000
7.371000,-0.110000,0.185000,-0.061000
7.391000,-0.110000,0.184000,-0.060000
7.411000,-0.110000,0.183000,-0.059000
7.431000,-0.108000,0.182000,-0.059000
7.451000,-0.106000,0.180000,-0.059000
7.471000,-0.105000,0.179000,-0.058000
7.491000,-0.104000,0.179000,-0.058000
7.511000,-0.100000,0.177000,-0.058000
7.531000,-0.096000,0.176000,-0.058000
7.551000,-0.094000,0.175000,-0.058000
7.571000,-0.091000,0.175000,-0.059000
7.591000,-0.088000,0.174000,-0.058000
7.611000,-0.086000,0.173000,-0.059000
7.631000,-0.085000,0.173000,-0.059000
7.651000,-0.083000,0.173000,-0.058000
7.671000,-0.081000,0.172000,-0.057000
7.691000,-0.079000,0.171000,-0.057000
7.711000,-0.077000,0.169000,-0.056000
7.731000,-0.076000,0.168000,-0.055000
7.751000,-0.076000,0.167000,-0.055000
7.771000,-0.076000,0.167000,-0.054000
7.791000,-0.076000,0.166000,-0.054000
7.811000,-0.075000,0.165000,-0.053000
7.831000,-0.074000,0.164000,-0.052000
7.851000,-0.074000,0.162000,-0.051000
7.871000,-0.074000,0.161000,-0.051000
7.891000,-0.075000,0.160000,-0.050000
7.911000,-0.074000,0.159000,-0.050000
7.931000,-0.073000,0.157000,-0.049000
7.951000,-0.072000,0.156000,-0.049000
7.971000,-0.072000,0.155000,-0.048000
7.991000,-0.072000,0.154000,-0.048000
