accel_time_list,accel_x_list,accel_y_list,accel_z_list
0.010000,-9.662998,-4.448427,3.888184
0.030000,-9.619903,-5.263652,3.160346
0.050000,-8.497172,-4.532557,2.982147
0.070000,-8.018270,-3.847230,3.122914
0.090000,-8.229415,-3.231874,3.197514
0.110000,-8.508390,-2.559449,3.259259
0.130000,-8.518189,-2.021195,3.381807
0.150000,-8.419082,-1.568191,3.506404
0.170000,-8.384414,-1.269137,3.602834
0.190000,-8.396182,-1.108500,3.662025
0.210000,-8.404373,-1.051832,3.699785
0.230000,-8.398090,-1.057917,3.712132
0.250000,-8.389751,-1.080869,3.701747
0.270000,-8.396266,-1.098655,3.679447
0.290000,-8.410960,-1.100637,3.651243
0.310000,-8.424404,-1.087740,3.623947
0.330000,-8.439588,-1.065302,3.597534
0.350000,-8.455539,-1.038359,3.572128
0.370000,-8.465100,-1.011510,3.543621
0.390000,-8.473441,-0.988018,3.518952
0.410000,-8.489230,-0.968016,3.492689
0.430000,-8.506851,-0.944559,3.458848
0.450000,-8.515162,-0.916375,3.419743
0.470000,-8.517486,-0.890502,3.383026
0.490000,-8.521505,-0.869510,3.348327
0.510000,-8.526163,-0.851215,3.312158
0.530000,-8.527159,-0.831404,3.270036
0.550000,-8.524715,-0.816177,3.225155
0.570000,-8.525180,-0.808617,3.185506
0.590000,-8.530480,-0.801511,3.147656
0.610000,-8.541107,-0.790474,3.107314
0.630000,-8.553250,-0.773325,3.065813
0.650000,-8.560602,-0.752115,3.026001
0.670000,-8.569646,-0.729892,2.984934
0.690000,-8.583452,-0.708091,2.939595
0.710000,-8.595268,-0.683042,2.890817
0.730000,-8.606123,-0.655751,2.843534
0.750000,-8.620193,-0.632104,2.800799
0.770000,-8.635712,-0.616525,2.762223
0.790000,-8.649419,-0.604737,2.727508
0.810000,-8.656336,-0.594349,2.694799
0.830000,-8.660977,-0.582930,2.659232
0.850000,-8.669549,-0.568140,2.622991
0.870000,-8.678780,-0.543173,2.583455
0.890000,-8.681346,-0.510499,2.541677
0.910000,-8.683907,-0.475658,2.495743
0.930000,-8.694630,-0.441217,2.446217
0.950000,-8.708134,-0.410405,2.396345
0.970000,-8.718915,-0.383093,2.347146
0.990000,-8.728403,-0.356956,2.298401
1.010000,-8.742161,-0.328809,2.248122
1.030000,-8.759143,-0.300572,2.201172
1.050000,-8.774424,-0.275303,2.161482
1.070000,-8.786164,-0.251575,2.124391
1.090000,-8.792006,-0.229380,2.089930
1.110000,-8.790717,-0.204951,2.053762
1.130000,-8.788548,-0.177400,2.017607
1.150000,-8.782533,-0.143231,1.977473
1.170000,-8.768411,-0.103399,1.938100
1.190000,-8.748216,-0.063644,1.903849
1.210000,-8.731053,-0.026252,1.873014
1.230000,-8.718947,0.008694,1.842387
1.250000,-8.700710,0.046242,1.807303
1.270000,-8.676885,0.087815,1.774842
1.290000,-8.650158,0.136031,1.750286
1.310000,-8.620250,0.191761,1.729788
1.330000,-8.586905,0.247337,1.716774
1.350000,-8.549205,0.295355,1.708380
1.370000,-8.509631,0.326268,1.697804
1.390000,-8.460289,0.345412,1.684589
1.410000,-8.398600,0.362467,1.674038
1.430000,-8.329546,0.391673,1.669677
1.450000,-8.263082,0.432519,1.664946
1.470000,-8.199716,0.466702,1.655091
1.490000,-8.130249,0.487991,1.642776
1.510000,-8.058126,0.507078,1.636490
1.530000,-7.993817,0.539073,1.632961
1.550000,-7.941959,0.583403,1.628880
1.570000,-7.901713,0.626713,1.619192
1.590000,-7.878412,0.653784,1.598241
1.610000,-7.869495,0.674259,1.577632
1.630000,-7.860022,0.709214,1.588577
1.650000,-7.850452,0.768424,1.635243
1.670000,-7.854074,0.838758,1.696271
1.690000,-7.864763,0.892204,1.721293
1.710000,-7.866750,0.921333,1.670316
1.730000,-7.837859,0.902688,1.520416
1.750000,-7.757323,0.807079,1.271385
1.770000,-7.550638,0.686570,0.781280
1.790000,-7.098820,0.582641,-0.168810
1.810000,-6.609006,0.246380,-1.563946
1.830000,-9.316712,-1.963549,4.725190
1.850000,-7.706794,-3.198465,-9.948374
1.870000,-5.452806,5.679785,-12.716511
1.890000,-3.826887,12.015907,7.542292
1.910000,-5.252239,3.677514,16.215248
1.930000,-4.242103,-0.331501,15.024368
1.950000,-0.391118,-3.888813,9.053223
1.970000,-2.848737,-5.667660,6.248138
1.990000,-3.369449,-5.376185,6.132187
2.052000,-2.655070,-5.172864,5.935606
2.072000,-2.769278,-3.953012,6.140529
2.092000,-3.335732,-3.505838,7.343495
2.112000,-3.140732,-2.357776,9.207192
2.132000,-3.037441,-3.423607,9.466527
2.152000,-2.290707,-4.190075,9.442933
2.172000,-1.962799,-3.545457,9.341541
2.192000,-2.459910,-3.440087,9.049446
2.212000,-2.743951,-4.739633,8.195286
2.232000,-2.218996,-6.855520,7.712570
2.252000,-1.769241,-7.175942,7.639319
2.272000,-1.669511,-6.364324,7.973968
2.292000,-1.350824,-5.777975,8.242429
2.312000,-0.955614,-5.994732,8.258709
2.332000,-0.711533,-6.132870,8.163208
2.352000,-0.743269,-5.847183,8.015862
2.372000,-0.884566,-5.635330,7.883018
2.392000,-0.876981,-6.060513,7.781468
2.412000,-0.823845,-6.775841,7.681750
2.432000,-0.789379,-7.268741,7.571191
2.452000,-0.686655,-7.359439,7.460668
2.472000,-0.606391,-7.368119,7.368732
2.492000,-0.549120,-7.378304,7.316698
2.512000,-0.506887,-7.352595,7.336803
2.532000,-0.498806,-7.285332,7.408103
2.552000,-0.502111,-7.203074,7.485327
2.572000,-0.501521,-7.119773,7.535980
2.592000,-0.504047,-7.061597,7.548705
2.612000,-0.520164,-7.057008,7.534414
2.632000,-0.534558,-7.091413,7.516482
2.652000,-0.553707,-7.132508,7.498564
2.672000,-0.565728,-7.180324,7.481467
2.692000,-0.563871,-7.232377,7.458539
2.712000,-0.573496,-7.249242,7.427235
2.732000,-0.578925,-7.275112,7.396659
2.752000,-0.580759,-7.323177,7.374012
2.772000,-0.575571,-7.355549,7.357105
2.792000,-0.566611,-7.368500,7.342341
2.812000,-0.557520,-7.376073,7.327013
2.832000,-0.552917,-7.394908,7.307167
2.852000,-0.549551,-7.421025,7.285954
2.872000,-0.543080,-7.447917,7.267344
2.892000,-0.536494,-7.464354,7.252793
2.912000,-0.527651,-7.469173,7.243551
2.932000,-0.519702,-7.469491,7.235037
2.952000,-0.514762,-7.475811,7.225618
2.972000,-0.511544,-7.490491,7.212200
2.992000,-0.507854,-7.509994,7.196604
3.012000,-0.502513,-7.525012,7.182281
3.032000,-0.496162,-7.541314,7.165713
3.052000,-0.489544,-7.560293,7.147531
3.072000,-0.482468,-7.576535,7.132663
3.092000,-0.476178,-7.590141,7.121054
3.112000,-0.470684,-7.598377,7.112152
3.132000,-0.466038,-7.603053,7.103024
3.152000,-0.463402,-7.612006,7.091631
3.172000,-0.458973,-7.623338,7.079069
3.192000,-0.455637,-7.633700,7.068851
3.212000,-0.454343,-7.644563,7.060212
3.232000,-0.452109,-7.654832,7.048840
3.252000,-0.448764,-7.664645,7.036312
3.272000,-0.447356,-7.675008,7.026025
3.292000,-0.447832,-7.687776,7.016516
3.312000,-0.447914,-7.697284,7.006446
3.332000,-0.448405,-7.703195,6.999185
3.352000,-0.446772,-7.708593,6.994021
3.372000,-0.444276,-7.711556,6.989745
3.392000,-0.441229,-7.712027,6.986665
3.412000,-0.438352,-7.711608,6.984680
3.432000,-0.436822,-7.712825,6.982001
3.452000,-0.435075,-7.717442,6.977913
3.472000,-0.432639,-7.722467,6.973095
3.492000,-0.429835,-7.725529,6.969072
3.512000,-0.427507,-7.727520,6.966928
3.532000,-0.425636,-7.728199,6.965675
3.552000,-0.423818,-7.728041,6.965080
3.572000,-0.421738,-7.729131,6.964009
3.592000,-0.419681,-7.731448,6.962071
3.612000,-0.417307,-7.734004,6.960007
3.632000,-0.415796,-7.736941,6.957602
3.652000,-0.414062,-7.739564,6.955840
3.672000,-0.412144,-7.739951,6.954872
3.692000,-0.411015,-7.740068,6.954841
3.712000,-0.409534,-7.741700,6.953433
3.732000,-0.408278,-7.744639,6.951757
3.752000,-0.406836,-7.746758,6.949624
3.772000,-0.405430,-7.748264,6.948109
3.792000,-0.403937,-7.749180,6.946864
3.812000,-0.403137,-7.750679,6.945683
3.832000,-0.402298,-7.752738,6.944245
3.852000,-0.401011,-7.754843,6.942655
3.872000,-0.400187,-7.756763,6.941665
3.892000,-0.399125,-7.757863,6.941131
3.912000,-0.397494,-7.757917,6.940549
3.932000,-0.396290,-7.758504,6.939681
3.952000,-0.395085,-7.759942,6.938982
3.972000,-0.394236,-7.761621,6.938183
3.992000,-0.392944,-7.762593,6.937229
4.012000,-0.391894,-7.763303,6.936526
4.032000,-0.390733,-7.763819,6.936038
4.325000,-0.389124,-7.763855,6.935421
4.345000,-0.388251,-7.763717,6.935345
4.365000,-0.387860,-7.763583,6.935489
4.385000,-0.387783,-7.764973,6.934817
4.405000,-0.386875,-7.767140,6.933115
4.425000,-0.385559,-7.768985,6.932058
4.445000,-0.384517,-7.769097,6.932416
4.465000,-0.383962,-7.768017,6.932871
4.485000,-0.383102,-7.768003,6.932287
4.505000,-0.381776,-7.768783,6.931358
4.525000,-0.380808,-7.769180,6.930978
4.545000,-0.380112,-7.769465,6.930756
4.565000,-0.379112,-7.769693,6.930242
4.585000,-0.378481,-7.769662,6.930105
4.605000,-0.377977,-7.770160,6.930310
4.625000,-0.376902,-7.770100,6.929767
4.645000,-0.376318,-7.770902,6.929135
4.665000,-0.375763,-7.771884,6.928868
4.685000,-0.375261,-7.772316,6.929131
4.705000,-0.374717,-7.772141,6.929391
4.725000,-0.377242,-7.772374,6.930008
4.745000,-0.380772,-7.773970,6.930451
4.765000,-0.379119,-7.777226,6.927777
4.785000,-0.373125,-7.781719,6.921179
4.805000,-0.370328,-7.788129,6.914959
4.825000,-0.369665,-7.793566,6.913182
4.845000,-0.369009,-7.793251,6.916092
4.865000,-0.367450,-7.786211,6.921750
4.885000,-0.365811,-7.776870,6.928668
4.905000,-0.362967,-7.767959,6.934990
4.925000,-0.360845,-7.762057,6.939621
4.945000,-0.359607,-7.757819,6.942793
4.965000,-0.360033,-7.754868,6.946053
4.985000,-0.361772,-7.753766,6.950382
5.005000,-0.360572,-7.753561,6.953183
5.025000,-0.359792,-7.752161,6.954567
5.045000,-0.361437,-7.749961,6.956823
5.065000,-0.364024,-7.747951,6.961092
5.085000,-0.365268,-7.744931,6.966061
5.105000,-0.364919,-7.739116,6.970860
5.125000,-0.366417,-7.733072,6.975492
5.145000,-0.370103,-7.730057,6.979239
5.165000,-0.372340,-7.730018,6.981894
5.185000,-0.372184,-7.730289,6.982896
5.205000,-0.373657,-7.729434,6.984318
5.225000,-0.374230,-7.726096,6.988097
5.245000,-0.373888,-7.720901,6.991765
5.265000,-0.375129,-7.715470,6.995278
5.285000,-0.375663,-7.709303,7.000120
5.305000,-0.377749,-7.706479,7.003094
5.325000,-0.379214,-7.710314,7.001561
5.345000,-0.379133,-7.715236,6.998392
5.365000,-0.379340,-7.718242,6.997217
5.385000,-0.379497,-7.719829,6.995959
5.405000,-0.382550,-7.720250,6.994761
5.425000,-0.384351,-7.721482,6.993909
5.445000,-0.384026,-7.721217,6.994431
5.465000,-0.384711,-7.719661,6.995715
5.485000,-0.385940,-7.718145,6.996387
5.505000,-0.386677,-7.717435,6.996812
5.525000,-0.386857,-7.716755,6.997785
5.545000,-0.387633,-7.715005,6.998890
5.565000,-0.389072,-7.714087,6.999219
5.585000,-0.390879,-7.714781,6.999042
5.605000,-0.391304,-7.716594,6.998675
5.625000,-0.391677,-7.716809,6.997593
5.645000,-0.393266,-7.715992,6.997720
5.665000,-0.393643,-7.716787,6.997031
5.685000,-0.392676,-7.718796,6.995415
5.705000,-0.393154,-7.719946,6.994318
5.725000,-0.394322,-7.719457,6.994477
5.745000,-0.394808,-7.719284,6.994228
5.765000,-0.394404,-7.720429,6.992664
5.785000,-0.394147,-7.721084,6.991738
5.805000,-0.394826,-7.719722,6.992187
5.825000,-0.395403,-7.719402,6.991936
5.845000,-0.391521,-7.716763,6.988455
5.865000,-0.393663,-7.721214,6.986805
5.885000,-0.394946,-7.721550,6.986848
5.905000,-0.396048,-7.718101,6.986483
5.925000,-0.403460,-7.732761,6.984853
5.945000,-0.402418,-7.729247,6.982593
5.965000,-0.400884,-7.727898,6.980451
5.985000,-0.401113,-7.726156,6.979551
6.005000,-0.400813,-7.725964,6.978781
6.025000,-0.403460,-7.730682,6.977515
6.045000,-0.403376,-7.732599,6.975711
6.065000,-0.403269,-7.733899,6.973854
6.085000,-0.404025,-7.734419,6.973020
6.105000,-0.403097,-7.731702,6.974062
6.125000,-0.403495,-7.726881,6.975023
6.145000,-0.405949,-7.729842,6.974298
6.165000,-0.405768,-7.730882,6.972598
6.185000,-0.409084,-7.732558,6.970316
6.205000,-0.409518,-7.734792,6.968944
6.225000,-0.411241,-7.733268,6.967944
6.245000,-0.412970,-7.734346,6.967385
6.265000,-0.415856,-7.733042,6.968460
6.285000,-0.416677,-7.731680,6.969236
6.305000,-0.416652,-7.729397,6.969622
