gyro_time_list,gyro_x_list,gyro_y_list,gyro_z_list
1.22,-0.088599,0.510942,1.24398
1.24,-0.033241,0.456983,1.197682
1.26,-0.036869,0.411675,1.129363
1.28,-0.081329,0.375402,1.062487
1.3,-0.146928,0.344572,1.00062
1.32,-0.220053,0.31826,0.947278
1.34,-0.287438,0.295253,0.904125
1.36,-0.341721,0.275385,0.871776
1.38,-0.381377,0.258299,0.84881
1.4,-0.409638,0.240185,0.834369
1.42,-0.432882,0.218028,0.827881
1.44,-0.46028,0.190069,0.826608
1.46,-0.498525,0.159345,0.829248
1.48,-0.55468,0.128852,0.840591
1.5,-0.634494,0.095025,0.858677
1.52,-0.742733,0.049514,0.873116
1.54,-0.875217,0.00064,0.880581
1.56,-1.010751,-0.041515,0.875495
1.58,-1.116284,-0.075485,0.85496
1.6,-1.178909,-0.108278,0.819051
1.62,-1.180762,-0.139782,0.775533
1.64,-1.133634,-0.175607,0.737919
1.66,-1.080361,-0.215855,0.712178
1.68,-1.075598,-0.257092,0.701688
1.7,-1.126724,-0.2996,0.697296
1.72,-1.200456,-0.344734,0.67619
1.74,-1.271756,-0.388324,0.624243
1.76,-1.320728,-0.420244,0.55267
1.78,-1.357061,-0.439904,0.475663
1.8,-1.394593,-0.451851,0.400115
1.82,-1.441532,-0.459481,0.326549
1.84,-1.489148,-0.461758,0.256036
1.86,-1.524019,-0.458496,0.186277
1.88,-1.53772,-0.449522,0.116273
1.9,-1.529846,-0.435779,0.047318
1.92,-1.504226,-0.417699,-0.02048
1.94,-1.466847,-0.394533,-0.089471
1.96,-1.422048,-0.366843,-0.162633
1.98,-1.362766,-0.337377,-0.239498
2,-1.28735,-0.306418,-0.324558
2.02,-1.200114,-0.273373,-0.422074
2.04,-1.105494,-0.23604,-0.530891
2.06,-1.021805,-0.190513,-0.651799
2.08,-0.966704,-0.137317,-0.77437
2.1,-0.91868,-0.094273,-0.856126
2.12,-0.844896,-0.096745,-0.941848
2.14,-0.768107,-0.103465,-1.049367
2.16,-0.705326,-0.106438,-1.163877
2.18,-0.651991,-0.109168,-1.277316
2.2,-0.610986,-0.110656,-1.3715
2.22,-0.580229,-0.108356,-1.430637
2.24,-0.546261,-0.102901,-1.4547
2.26,-0.504076,-0.094356,-1.449085
2.28,-0.454756,-0.084897,-1.415872
2.3,-0.400691,-0.076783,-1.359751
2.32,-0.348588,-0.071575,-1.285156
2.34,-0.297382,-0.071094,-1.193634
2.36,-0.247092,-0.075396,-1.092539
2.38,-0.200975,-0.086257,-0.985183
2.4,-0.166418,-0.107275,-0.870065
2.42,-0.15527,-0.141748,-0.739511
2.44,-0.183944,-0.18766,-0.585879
2.46,-0.278302,-0.247605,-0.412373
2.48,-0.441503,-0.33587,-0.226386
2.5,-0.614644,-0.454469,-0.039074
2.52,-0.795559,-0.565691,0.063091
2.54,-0.981729,-0.66741,0.089418
2.56,-0.988709,-0.748246,0.109388
2.58,-0.938882,-0.82579,0.120893
2.6,-0.917782,-0.909779,0.134416
2.62,-0.938961,-1.001781,0.140207
2.64,-0.98826,-1.099308,0.131214
2.66,-1.065431,-1.194217,0.110401
2.68,-1.137691,-1.283739,0.08717
2.7,-1.173695,-1.355408,0.06216
2.72,-1.164005,-1.404876,0.036472
2.74,-1.124086,-1.432799,0.010409
2.76,-1.070621,-1.442929,-0.020107
2.78,-1.011484,-1.439102,-0.056777
2.8,-0.958074,-1.423919,-0.100923
2.82,-0.931993,-1.401218,-0.158107
2.84,-0.952157,-1.370066,-0.233754
2.86,-1.008355,-1.321848,-0.31859
2.88,-1.049172,-1.248758,-0.399962
2.9,-1.017028,-1.172183,-0.513428
2.92,-0.924137,-1.102933,-0.666615
2.94,-0.813788,-1.030225,-0.83965
2.96,-0.702498,-0.956776,-1.004771
2.98,-0.591424,-0.884998,-1.142492
3,-0.474521,-0.812674,-1.238356
3.02,-0.335543,-0.737688,-1.285818
3.04,-0.160655,-0.665642,-1.28963
3.06,0.041927,-0.610904,-1.26315
3.08,0.233495,-0.578868,-1.208837
3.1,0.358986,-0.577477,-1.126359
3.12,0.376055,-0.604287,-1.030794
3.14,0.296574,-0.650719,-0.925257
3.16,0.172766,-0.707297,-0.811919
3.18,0.05321,-0.777281,-0.695241
3.2,-0.03456,-0.867922,-0.578565
3.386,-0.207198,-0.954115,-0.514804
3.406,-0.355524,-1.042024,-0.451908
3.426,-0.448207,-1.128661,-0.388328
3.446,-0.493101,-1.206794,-0.324499
3.466,-0.511713,-1.269864,-0.263167
3.486,-0.524254,-1.31634,-0.213508
3.506,-0.523343,-1.350198,-0.179767
3.526,-0.505982,-1.371707,-0.167827
3.546,-0.482568,-1.382038,-0.175994
3.566,-0.470865,-1.381955,-0.200883
3.586,-0.475082,-1.376573,-0.238731
3.606,-0.503338,-1.367801,-0.294244
3.626,-0.561533,-1.349621,-0.369568
3.646,-0.640345,-1.308528,-0.455535
3.666,-0.668135,-1.246066,-0.557858
3.686,-0.637248,-1.171052,-0.703598
3.706,-0.557708,-1.091488,-0.879699
3.726,-0.429523,-1.009872,-1.060369
3.746,-0.274782,-0.929367,-1.243066
3.766,-0.136545,-0.856964,-1.404451
3.786,-0.053108,-0.782754,-1.523667
3.806,-0.008292,-0.69412,-1.582793
3.826,0.045883,-0.593876,-1.577583
3.846,0.136366,-0.495912,-1.515381
3.866,0.249151,-0.411287,-1.406945
3.886,0.349651,-0.347045,-1.260628
3.906,0.397417,-0.306155,-1.079606
3.926,0.377247,-0.286821,-0.866263
3.946,0.312903,-0.288677,-0.632783
3.966,0.228418,-0.309393,-0.393093
3.986,0.14914,-0.346516,-0.146473
4.006,0.093547,-0.397548,0.11463
4.026,0.044546,-0.449571,0.390546
4.046,-0.053922,-0.499922,0.643027
4.066,-0.184879,-0.584658,0.876627
4.086,-0.344443,-0.698083,1.027299
4.106,-0.544384,-0.785075,1.033512
4.126,-0.686997,-0.84845,0.976763
4.146,-0.741858,-0.89218,0.904711
4.166,-0.748368,-0.922025,0.84198
4.186,-0.72701,-0.944778,0.799226
4.206,-0.688461,-0.966039,0.771619
4.226,-0.649203,-0.986603,0.75416
4.246,-0.619438,-1.003923,0.743807
4.266,-0.611694,-1.014454,0.732991
4.286,-0.618536,-1.011963,0.722267
4.306,-0.63034,-0.99389,0.705028
4.326,-0.635015,-0.96425,0.678355
4.346,-0.62281,-0.927764,0.642049
4.366,-0.592449,-0.882301,0.595354
4.386,-0.547512,-0.824273,0.536736
4.406,-0.49115,-0.751713,0.46792
4.426,-0.422456,-0.665891,0.39012
4.446,-0.354802,-0.566947,0.297681
4.466,-0.31055,-0.452937,0.188088
4.486,-0.288607,-0.327462,0.091492
4.506,-0.256885,-0.200773,0.027042
4.526,-0.191835,-0.128744,-0.057474
4.546,-0.080555,-0.089482,-0.191636
4.566,0.058142,-0.049759,-0.353368
4.586,0.183226,-0.013591,-0.512243
4.606,0.245768,0.022679,-0.658538
4.626,0.245104,0.072329,-0.770154
4.646,0.212494,0.139715,-0.830431
4.666,0.183265,0.218612,-0.845381
4.686,0.180172,0.298571,-0.82091
4.706,0.198533,0.375742,-0.763915
4.726,0.224785,0.450129,-0.681962
4.746,0.252176,0.518048,-0.577549
4.766,0.273109,0.574395,-0.451328
4.786,0.276822,0.618533,-0.31334
4.806,0.270393,0.648426,-0.16237
4.826,0.268519,0.660282,0.011948
4.846,0.265691,0.665126,0.202951
4.866,0.263465,0.665038,0.411663
4.886,0.279362,0.63124,0.66864
4.906,0.302584,0.553777,0.926302
4.926,0.25868,0.496143,1.153218
4.946,0.138759,0.451669,1.29819
4.966,-0.018109,0.419535,1.360297
4.986,-0.187503,0.391389,1.373189
5.006,-0.316656,0.353261,1.379778
5.026,-0.382578,0.297005,1.396634
5.046,-0.389484,0.224121,1.408167
5.066,-0.359085,0.145012,1.409254
5.086,-0.31426,0.073277,1.386062
5.106,-0.272189,0.015861,1.337115
5.126,-0.239757,-0.028603,1.264052
5.146,-0.213878,-0.058549,1.161491
5.166,-0.183957,-0.066563,1.024027
5.186,-0.144256,-0.051568,0.845671
5.206,-0.093086,-0.014744,0.627999
5.226,-0.031786,0.035128,0.376429
5.246,0.026758,0.089759,0.105814
5.266,0.092219,0.151133,-0.109154
5.286,0.150109,0.207161,-0.307265
5.306,0.215256,0.255623,-0.541641
5.326,0.279299,0.269341,-0.808202
5.346,0.292023,0.274847,-1.089382
5.366,0.251135,0.31269,-1.352086
5.461,0.355425,0.413707,-1.304592
5.481,0.432635,0.50122,-1.191436
5.501,0.458809,0.579113,-1.026246
5.521,0.435962,0.647224,-0.832144
5.541,0.385835,0.700968,-0.627452
5.561,0.330589,0.736765,-0.410188
5.581,0.267268,0.756479,-0.185997
5.601,0.1702,0.768768,0.015411
5.621,-0.001414,0.762825,0.195016
5.641,-0.196142,0.686408,0.405651
5.661,-0.41011,0.570554,0.549339
5.681,-0.632321,0.456492,0.599133
5.701,-0.817723,0.361579,0.609006
5.721,-0.890708,0.286075,0.5983
5.741,-0.840119,0.232211,0.586916
5.761,-0.718725,0.193533,0.578123
5.781,-0.568087,0.163322,0.569809
5.801,-0.417432,0.142232,0.558598
5.821,-0.273586,0.133676,0.543674
5.841,-0.150468,0.136327,0.519415
5.861,-0.062384,0.145687,0.48532
5.881,-0.011597,0.161834,0.445157
5.901,0.013441,0.188494,0.399261
5.921,0.045394,0.230134,0.34571
5.941,0.110629,0.289456,0.281378
5.961,0.199906,0.365129,0.194339
5.981,0.279993,0.45163,0.079893
6.001,0.349593,0.55105,-0.036333
6.021,0.429207,0.665639,-0.149505
6.041,0.536176,0.787056,-0.293082
6.061,0.671717,0.869315,-0.470744
6.081,0.748151,0.888043,-0.687713
6.101,0.735719,0.881842,-0.902128
6.121,0.672054,0.894092,-1.078115
6.141,0.612754,0.938057,-1.199593
6.161,0.601762,0.996845,-1.258704
6.181,0.64753,1.050691,-1.264234
6.201,0.730926,1.0957,-1.227979
6.221,0.816725,1.133382,-1.16463
6.241,0.86727,1.165111,-1.082135
6.261,0.86834,1.184574,-0.985626
6.281,0.823659,1.185331,-0.887713
6.301,0.746842,1.169559,-0.789496
6.321,0.652564,1.141011,-0.683818
6.341,0.559992,1.099754,-0.562751
6.361,0.476291,1.04907,-0.422608
6.381,0.380612,0.996383,-0.265762
6.401,0.24536,0.933734,-0.060005
6.421,0.13311,0.833071,0.193716
6.441,-0.004961,0.710913,0.34737
6.461,-0.198791,0.612112,0.43603
6.481,-0.424366,0.558372,0.472397
6.501,-0.595478,0.52601,0.48418
6.521,-0.654159,0.501742,0.497537
6.541,-0.611371,0.471601,0.513678
6.561,-0.504296,0.435493,0.531426
6.581,-0.356241,0.400402,0.547126
6.601,-0.18954,0.379676,0.55733
6.621,-0.027479,0.375432,0.559041
6.641,0.105582,0.382272,0.551874
6.661,0.185786,0.39264,0.532702
6.681,0.206317,0.404516,0.49833
6.701,0.197156,0.419049,0.451374
6.721,0.177339,0.439674,0.391665
6.741,0.140676,0.466874,0.314491
6.761,0.087658,0.497157,0.217076
6.781,0.018213,0.536496,0.119973
6.801,-0.031509,0.598683,0.023748
6.821,-0.011238,0.648405,-0.121045
6.841,0.092293,0.668228,-0.308969
6.861,0.213233,0.685669,-0.523506
6.881,0.297398,0.708032,-0.733779
6.901,0.310705,0.736497,-0.915053
6.921,0.264256,0.780836,-1.051295
6.941,0.204732,0.845116,-1.13423
6.961,0.186305,0.923169,-1.1625
6.981,0.228982,1.004256,-1.144142
7.001,0.309846,1.080944,-1.095301
7.021,0.396495,1.150329,-1.033387
7.041,0.465424,1.212772,-0.967353
7.061,0.511343,1.266522,-0.898986
7.081,0.544267,1.308872,-0.831517
7.101,0.573592,1.337274,-0.768117
7.121,0.604644,1.345749,-0.697089
7.141,0.636485,1.334775,-0.597045
7.161,0.642378,1.298349,-0.445749
7.181,0.569271,1.237921,-0.217002
7.201,0.400172,1.158533,0.05271
7.221,0.184848,1.065561,0.30293
7.241,-0.047033,0.975884,0.489187
7.261,-0.291577,0.907113,0.621495
7.281,-0.457868,0.866152,0.712184
7.301,-0.488139,0.848157,0.773012
7.321,-0.430999,0.843139,0.818559
7.341,-0.33377,0.842789,0.852151
7.361,-0.219718,0.845133,0.870577
7.381,-0.102789,0.84999,0.871286
7.401,0.001141,0.857638,0.852418
7.421,0.085938,0.872214,0.819581
7.441,0.140584,0.89491,0.77409
7.536,0.198736,0.977331,0.669775
7.556,0.249451,1.087062,0.590985
7.576,0.409234,1.170202,0.442865
7.596,0.630728,1.207204,0.215697
7.616,0.789921,1.22899,-0.0394
7.636,0.834199,1.261557,-0.30113
7.656,0.800528,1.310378,-0.544995
7.676,0.748258,1.37643,-0.737088
7.696,0.726395,1.457904,-0.86915
7.716,0.74483,1.546111,-0.939545
7.736,0.787441,1.630983,-0.952575
7.756,0.838272,1.707154,-0.918865
7.776,0.883259,1.775134,-0.860476
7.796,0.914779,1.830797,-0.79073
7.816,0.930764,1.869045,-0.719543
7.836,0.929025,1.890147,-0.645298
7.856,0.905725,1.899158,-0.558453
7.876,0.86147,1.89937,-0.443347
7.896,0.784256,1.893712,-0.292498
7.916,0.623512,1.885467,-0.119659
7.936,0.393206,1.841904,0.118761
7.956,0.143538,1.758648,0.294993
7.976,-0.117935,1.707925,0.377087
7.996,-0.29283,1.672421,0.413446
8.016,-0.344665,1.639576,0.435581
8.036,-0.295768,1.605904,0.450285
8.056,-0.179956,1.56842,0.459376
8.076,-0.026062,1.525483,0.469313
8.096,0.140762,1.478438,0.477964
8.116,0.303764,1.433425,0.476479
8.136,0.453323,1.398794,0.464988
8.156,0.583238,1.374914,0.4512
8.176,0.68132,1.360435,0.432049
8.196,0.748848,1.35538,0.404801
8.216,0.805824,1.362006,0.370519
8.236,0.865393,1.382899,0.329675
8.256,0.920146,1.417481,0.282247
8.276,0.958653,1.461281,0.238214
8.296,0.967414,1.510663,0.214337
8.316,0.961375,1.572924,0.198609
8.336,1.074339,1.633733,0.157152
8.356,1.242019,1.655808,0.056903
8.376,1.341242,1.666518,-0.073552
8.396,1.331358,1.693504,-0.215236
8.416,1.237634,1.735334,-0.346808
8.436,1.097189,1.781587,-0.454343
8.456,0.972127,1.831779,-0.533157
8.476,0.916638,1.888176,-0.579364
8.496,0.937494,1.950513,-0.59825
8.516,0.998984,2.014615,-0.606194
8.536,1.072998,2.075223,-0.613997
8.556,1.132176,2.132236,-0.627157
8.576,1.174068,2.185462,-0.647313
8.596,1.218683,2.234977,-0.677817
8.616,1.282351,2.283309,-0.717699
8.636,1.363566,2.325181,-0.765897
8.656,1.447638,2.358841,-0.813731
8.676,1.526912,2.372189,-0.840019
8.696,1.577613,2.361838,-0.83824
8.716,1.570878,2.336442,-0.821232
8.736,1.534323,2.296046,-0.798351
8.756,1.503001,2.246191,-0.777867
8.776,1.470795,2.194618,-0.763801
8.796,1.429504,2.143318,-0.752608
8.816,1.385907,2.087384,-0.737335
8.836,1.340551,2.020524,-0.718213
8.856,1.290324,1.940653,-0.699738
8.876,1.23379,1.849715,-0.684479
8.896,1.170648,1.751171,-0.672601
8.916,1.100846,1.650839,-0.665325
8.936,1.055677,1.568072,-0.665326
8.956,1.041017,1.495697,-0.669169
8.976,1.05056,1.445875,-0.665658
8.996,1.044872,1.419116,-0.674173
9.016,1.022781,1.398791,-0.690349
9.036,1.001919,1.380272,-0.70737
9.056,0.970758,1.359459,-0.712914
9.076,0.929319,1.333778,-0.712914
9.096,0.879598,1.310315,-0.708121
9.116,0.84023,1.290235,-0.694947
9.136,0.815809,1.267639,-0.681729
9.156,0.795852,1.250858,-0.668723
9.176,0.764463,1.229931,-0.659733
9.196,0.725349,1.211437,-0.650719
9.216,0.678289,1.192955,-0.641826
9.236,0.623923,1.174763,-0.631277
9.256,0.571359,1.160805,-0.620317
9.276,0.526488,1.14469,-0.609107
9.296,0.500123,1.131007,-0.5919
9.316,0.489378,1.113864,-0.571509
9.336,0.477667,1.084922,-0.552076
9.356,0.468287,1.048522,-0.533717
9.376,0.471789,1.006581,-0.510925
9.396,0.485499,0.959102,-0.480677
9.416,0.503823,0.90483,-0.446381
9.436,0.528152,0.843445,-0.407354
9.456,0.536048,0.774859,-0.365885
9.476,0.489262,0.693195,-0.327368
9.496,0.397748,0.596946,-0.297258
9.516,0.286307,0.489446,-0.271945
