gyro_time_list,gyro_x_list,gyro_y_list,gyro_z_list
0.748,0.021717,0.213703,-0.011458
0.768,0.008593,0.176864,0.01772
0.788,-0.046482,0.117778,-0.050263
0.808,-0.055918,0.056612,-0.098985
0.828,-0.066817,0.016081,-0.118024
0.848,-0.084054,-0.024847,-0.124239
0.868,-0.10642,-0.038496,-0.118369
0.888,-0.115777,-0.021762,-0.091886
0.908,-0.111452,-0.002616,-0.062018
0.928,-0.098663,0.00976,-0.037904
0.948,-0.084884,0.023135,-0.018932
0.968,-0.073089,0.032296,-0.010561
0.988,-0.065698,0.034617,-0.008248
1.008,-0.069785,0.03414,-0.007125
1.028,-0.08616,0.032937,-0.003857
1.048,-0.108434,0.032586,-0.000859
1.068,-0.122915,0.034456,-0.000767
1.088,-0.122841,0.038995,-0.000215
1.108,-0.11501,0.043364,-0.000089
1.128,-0.107656,0.047058,-0.001759
1.148,-0.098932,0.048513,-0.009383
1.168,-0.085281,0.045968,-0.020058
1.188,-0.068925,0.043729,-0.031734
1.208,-0.057065,0.040187,-0.037195
1.228,-0.054465,0.038422,-0.037598
1.248,-0.0564,0.039435,-0.035569
1.268,-0.055326,0.042202,-0.033832
1.288,-0.051804,0.046146,-0.034074
1.308,-0.04985,0.052766,-0.038832
1.328,-0.049103,0.060427,-0.0463
1.348,-0.048046,0.067538,-0.054282
1.368,-0.046988,0.073398,-0.062964
1.388,-0.048572,0.078403,-0.072007
1.408,-0.053298,0.08412,-0.081265
1.428,-0.062666,0.087969,-0.087656
1.448,-0.070062,0.090579,-0.091235
1.468,-0.065588,0.092859,-0.08806
1.488,-0.052324,0.096744,-0.086675
1.508,-0.044069,0.100283,-0.08389
1.528,-0.039243,0.101492,-0.08128
1.548,-0.038053,0.099137,-0.082218
1.568,-0.044247,0.092428,-0.082409
1.588,-0.055917,0.085033,-0.082635
1.608,-0.06774,0.080555,-0.08119
1.628,-0.073587,0.078734,-0.078792
1.648,-0.068424,0.078389,-0.071279
1.668,-0.058211,0.078206,-0.061933
1.688,-0.054307,0.076286,-0.05137
1.708,-0.059055,0.070672,-0.046025
1.728,-0.061564,0.062127,-0.046096
1.748,-0.063055,0.056156,-0.045886
1.768,-0.060324,0.052786,-0.044168
1.788,-0.05706,0.051464,-0.042179
1.808,-0.055015,0.051469,-0.039506
1.828,-0.052826,0.052499,-0.037129
1.848,-0.051059,0.054307,-0.03484
1.868,-0.04969,0.055547,-0.032793
1.888,-0.048192,0.055618,-0.030899
1.908,-0.047814,0.054343,-0.029541
1.928,-0.049369,0.051695,-0.028842
1.948,-0.051318,0.048355,-0.027998
1.968,-0.053229,0.045315,-0.02675
1.988,-0.055843,0.042753,-0.025114
2.008,-0.059316,0.040731,-0.022959
2.028,-0.063124,0.038917,-0.020684
2.048,-0.066439,0.037556,-0.019658
2.068,-0.067888,0.036332,-0.019196
2.088,-0.067827,0.035511,-0.019297
2.108,-0.067406,0.035049,-0.019471
2.128,-0.067209,0.034543,-0.019733
2.148,-0.067184,0.033965,-0.019886
2.168,-0.067074,0.033399,-0.02011
2.188,-0.066686,0.032988,-0.020412
2.208,-0.065539,0.032769,-0.020927
2.228,-0.063024,0.032904,-0.021659
2.248,-0.059227,0.033126,-0.022481
2.268,-0.055424,0.033055,-0.023255
2.288,-0.053351,0.032954,-0.024544
2.308,-0.053582,0.032792,-0.025367
2.328,-0.05418,0.032188,-0.025766
2.348,-0.054437,0.031765,-0.025771
2.368,-0.054341,0.031534,-0.025432
2.388,-0.054066,0.031243,-0.02518
2.408,-0.054011,0.031458,-0.024864
2.428,-0.053828,0.031948,-0.024532
2.448,-0.053144,0.032314,-0.024293
2.468,-0.052775,0.032646,-0.024034
2.488,-0.052878,0.032708,-0.023926
2.508,-0.053149,0.032656,-0.023878
2.528,-0.053151,0.032685,-0.023722
2.548,-0.053019,0.03288,-0.023502
2.568,-0.053416,0.033045,-0.023024
2.588,-0.055334,0.032562,-0.022345
2.608,-0.05823,0.030822,-0.022843
2.628,-0.059827,0.028728,-0.023345
2.648,-0.060242,0.027025,-0.023329
2.668,-0.060218,0.024445,-0.023561
2.688,-0.060797,0.022395,-0.024449
2.708,-0.061678,0.022017,-0.024582
2.728,-0.062331,0.022309,-0.023955
2.894,-0.062512,0.022328,-0.023534
2.914,-0.062323,0.02238,-0.022987
2.934,-0.0614,0.0225,-0.02245
2.954,-0.059907,0.022716,-0.02205
2.974,-0.058402,0.022902,-0.021735
2.994,-0.057343,0.022989,-0.021352
3.014,-0.056711,0.022992,-0.021073
3.034,-0.056423,0.023302,-0.021022
3.054,-0.056324,0.023803,-0.021369
3.074,-0.056063,0.024271,-0.022056
3.094,-0.05555,0.024723,-0.022919
3.114,-0.054943,0.024932,-0.023952
3.134,-0.054238,0.024822,-0.025353
3.154,-0.053106,0.025083,-0.02675
3.174,-0.051332,0.025409,-0.027994
3.194,-0.049994,0.025633,-0.029492
3.214,-0.049475,0.026492,-0.031181
3.234,-0.049418,0.027846,-0.032566
3.254,-0.049927,0.029158,-0.034211
3.274,-0.050498,0.030535,-0.035353
3.294,-0.050514,0.032378,-0.035928
3.314,-0.050198,0.034349,-0.035886
3.334,-0.049477,0.03663,-0.03568
3.354,-0.047986,0.039032,-0.034688
3.374,-0.046607,0.040125,-0.032949
3.394,-0.04492,0.040346,-0.032769
3.414,-0.044892,0.038044,-0.033912
3.434,-0.04582,0.035017,-0.035647
3.454,-0.048103,0.033088,-0.035922
3.474,-0.048739,0.032488,-0.035045
3.494,-0.047832,0.03262,-0.03134
3.514,-0.048908,0.031171,-0.027537
3.534,-0.052992,0.028323,-0.025922
3.554,-0.057179,0.026091,-0.023635
3.574,-0.058761,0.024993,-0.021846
3.594,-0.057835,0.023901,-0.022404
3.614,-0.055984,0.023203,-0.024515
3.634,-0.055284,0.023196,-0.026325
3.654,-0.054533,0.023989,-0.026024
3.674,-0.05409,0.025077,-0.024785
3.694,-0.054611,0.026054,-0.023871
3.714,-0.055949,0.026586,-0.023349
3.734,-0.058152,0.0262,-0.023236
3.754,-0.061099,0.024955,-0.023477
3.774,-0.063787,0.023378,-0.023872
3.794,-0.065295,0.021887,-0.023292
3.814,-0.06645,0.020903,-0.022901
3.834,-0.067491,0.020584,-0.022814
3.854,-0.068111,0.020773,-0.022089
3.874,-0.068611,0.021243,-0.021451
3.894,-0.068605,0.02156,-0.021181
3.914,-0.067787,0.02196,-0.021171
3.934,-0.066341,0.022019,-0.021355
3.954,-0.065489,0.021927,-0.021769
3.974,-0.065663,0.021514,-0.022121
3.994,-0.066008,0.021138,-0.022077
4.014,-0.065973,0.020772,-0.021665
4.034,-0.065994,0.020382,-0.021305
4.054,-0.066202,0.019852,-0.021045
4.074,-0.06655,0.019249,-0.020724
4.094,-0.066846,0.018688,-0.020461
4.114,-0.06684,0.01841,-0.020267
4.134,-0.066619,0.018445,-0.020132
4.154,-0.066318,0.018736,-0.020063
4.174,-0.066041,0.019111,-0.020022
4.194,-0.065278,0.019673,-0.020261
4.214,-0.063518,0.020368,-0.020509
4.234,-0.061716,0.020902,-0.02038
4.254,-0.061136,0.021211,-0.020235
4.274,-0.061789,0.021476,-0.020071
4.294,-0.06247,0.02171,-0.020017
4.314,-0.062641,0.021978,-0.01975
4.334,-0.062715,0.022123,-0.019495
4.354,-0.062677,0.022224,-0.019264
4.374,-0.062378,0.022307,-0.019
4.394,-0.061954,0.022299,-0.018762
4.414,-0.061466,0.022194,-0.018614
4.434,-0.060882,0.022093,-0.018551
4.454,-0.060471,0.021964,-0.01847
4.474,-0.060392,0.021669,-0.018487
4.494,-0.060566,0.021352,-0.018383
4.514,-0.060761,0.021091,-0.017993
4.534,-0.06068,0.020872,-0.017608
4.554,-0.06041,0.020758,-0.017536
4.574,-0.060066,0.020615,-0.017595
4.594,-0.0596,0.020501,-0.017629
4.614,-0.059282,0.02052,-0.017541
4.634,-0.05925,0.020432,-0.017464
4.654,-0.059272,0.020264,-0.017431
4.674,-0.059198,0.02011,-0.017419
4.694,-0.059112,0.020009,-0.017397
4.714,-0.059031,0.019965,-0.0174
4.734,-0.058851,0.019965,-0.017411
4.754,-0.058606,0.020013,-0.017453
4.774,-0.058223,0.020144,-0.017547
4.794,-0.057654,0.020394,-0.017681
4.814,-0.05688,0.020534,-0.017856
4.834,-0.056189,0.020503,-0.017979
4.854,-0.056179,0.020268,-0.018092
4.874,-0.057213,0.019983,-0.018088
5.214,-0.05787,0.020183,-0.017855
5.234,-0.057867,0.020472,-0.017627
5.254,-0.056966,0.02086,-0.017417
5.274,-0.055476,0.02142,-0.017161
5.294,-0.053665,0.021945,-0.016984
5.314,-0.052049,0.02222,-0.016869
5.334,-0.051058,0.022208,-0.016989
5.354,-0.05037,0.02209,-0.017126
5.374,-0.049908,0.022058,-0.017213
5.394,-0.049759,0.021876,-0.017165
5.414,-0.050966,0.02119,-0.017137
5.434,-0.053239,0.020438,-0.019151
5.454,-0.053645,0.019003,-0.02019
5.474,-0.051371,0.017812,-0.019473
5.494,-0.047813,0.016711,-0.018872
5.514,-0.045495,0.016718,-0.019368
5.534,-0.044672,0.01761,-0.019278
5.554,-0.044989,0.018436,-0.018306
5.574,-0.046582,0.019171,-0.016716
5.594,-0.047761,0.020079,-0.015924
5.614,-0.046284,0.020091,-0.017365
5.634,-0.042336,0.019748,-0.019916
5.654,-0.039661,0.018998,-0.020312
5.674,-0.041863,0.017572,-0.020263
5.694,-0.046139,0.016716,-0.020223
5.714,-0.048465,0.016663,-0.019019
5.734,-0.048774,0.017464,-0.017698
5.754,-0.047588,0.018625,-0.01678
5.774,-0.045558,0.019966,-0.016114
5.794,-0.043346,0.021317,-0.01585
5.814,-0.041339,0.022757,-0.016024
5.834,-0.039824,0.024192,-0.016903
5.854,-0.039604,0.025024,-0.018776
5.874,-0.041276,0.025075,-0.020655
5.894,-0.043471,0.024995,-0.022403
5.914,-0.044978,0.025081,-0.023719
5.934,-0.045808,0.024833,-0.024204
5.954,-0.046951,0.024546,-0.024164
5.974,-0.048578,0.024615,-0.024072
5.994,-0.050796,0.025144,-0.023679
6.014,-0.052433,0.024994,-0.023731
6.034,-0.051946,0.024203,-0.025089
6.054,-0.049684,0.023444,-0.025548
6.074,-0.047559,0.022094,-0.026672
6.094,-0.046347,0.021841,-0.027989
6.114,-0.045164,0.023375,-0.028082
6.134,-0.043966,0.025292,-0.027491
6.154,-0.043019,0.026355,-0.026648
6.174,-0.042687,0.026843,-0.025612
6.194,-0.043326,0.026729,-0.023829
6.214,-0.04556,0.025977,-0.02249
6.234,-0.048449,0.024958,-0.021714
6.254,-0.050619,0.023841,-0.021814
6.274,-0.050446,0.022534,-0.021019
6.294,-0.048131,0.021646,-0.020358
6.314,-0.044666,0.020099,-0.020364
6.334,-0.042639,0.019125,-0.020987
6.354,-0.04244,0.019163,-0.021116
6.374,-0.043905,0.019873,-0.020203
6.394,-0.046356,0.020883,-0.018876
6.414,-0.048944,0.022266,-0.017463
6.434,-0.050424,0.023385,-0.01651
6.454,-0.050871,0.023622,-0.015896
6.474,-0.051547,0.02307,-0.015723
6.494,-0.052582,0.022194,-0.015577
6.514,-0.053923,0.021165,-0.014159
6.534,-0.055843,0.020288,-0.013327
6.554,-0.05761,0.01964,-0.012629
6.574,-0.058732,0.019503,-0.012112
6.594,-0.058722,0.019893,-0.011992
6.614,-0.057297,0.02067,-0.011871
6.634,-0.055253,0.021628,-0.011706
6.654,-0.053685,0.02244,-0.01161
6.674,-0.05309,0.023115,-0.011568
6.694,-0.053173,0.023766,-0.011498
6.714,-0.053113,0.024438,-0.01145
6.734,-0.052848,0.024909,-0.011338
6.754,-0.052761,0.024952,-0.011326
6.774,-0.05301,0.024796,-0.01131
6.794,-0.053286,0.024609,-0.01123
6.814,-0.053207,0.024526,-0.010962
6.834,-0.052971,0.02454,-0.010495
6.854,-0.052776,0.024539,-0.01007
6.874,-0.052205,0.024525,-0.009868
6.894,-0.051359,0.024352,-0.00976
6.914,-0.050683,0.024068,-0.009903
6.934,-0.04981,0.023947,-0.01001
6.954,-0.048315,0.024024,-0.010018
6.974,-0.046175,0.024348,-0.009876
6.994,-0.043505,0.024844,-0.009679
7.014,-0.040849,0.025383,-0.009637
7.034,-0.038801,0.025979,-0.009919
7.054,-0.037537,0.026603,-0.010395
7.074,-0.036666,0.026935,-0.010656
7.094,-0.036442,0.026966,-0.010612
7.114,-0.037184,0.024999,-0.011811
7.134,-0.038447,0.022521,-0.013672
7.154,-0.037926,0.022637,-0.013438
7.174,-0.035764,0.024454,-0.011766
7.194,-0.033596,0.023894,-0.01231
