accel_time_list,accel_x_list,accel_y_list,accel_z_list
0.623,-4.537012,-5.722142,0.079009
0.643,-4.48434,-6.14831,-0.010774
0.663,-4.427637,-6.893291,-0.171779
0.683,-4.344697,-7.356662,-0.271747
0.703,-4.279461,-7.580149,-0.352509
0.723,-4.24476,-7.734627,-0.441009
0.743,-4.244094,-7.89352,-0.524402
0.763,-4.279733,-7.997419,-0.567273
0.783,-4.296484,-8.043321,-0.537518
0.803,-4.268582,-8.08855,-0.440136
0.823,-4.238698,-8.095976,-0.306897
0.843,-4.231949,-8.118141,-0.214512
0.863,-4.253469,-8.172311,-0.195142
0.883,-4.257706,-8.208903,-0.265248
0.903,-4.258783,-8.202942,-0.395616
0.923,-4.285645,-8.181177,-0.518411
0.943,-4.351202,-8.2386,-0.629241
0.963,-4.463518,-8.329037,-0.739764
0.983,-4.584085,-8.413836,-0.839406
1.003,-4.660685,-8.456301,-0.930516
1.023,-4.726709,-8.458155,-1.006008
1.043,-4.813853,-8.424345,-1.055123
1.063,-4.899502,-8.358874,-1.074662
1.083,-4.953912,-8.272017,-1.067129
1.103,-4.971624,-8.163249,-1.046167
1.123,-4.954648,-8.031307,-1.02674
1.143,-4.908659,-7.885159,-1.01948
1.163,-4.844263,-7.759267,-1.032221
1.183,-4.780111,-7.699314,-1.07331
1.203,-4.729571,-7.709454,-1.140575
1.223,-4.694643,-7.76494,-1.229174
1.243,-4.67057,-7.840563,-1.326928
1.263,-4.649421,-7.911774,-1.419299
1.283,-4.623727,-7.955309,-1.493247
1.303,-4.595215,-7.96769,-1.546633
1.323,-4.56739,-7.963202,-1.585932
1.343,-4.541347,-7.965577,-1.620196
1.363,-4.515522,-7.982717,-1.652274
1.383,-4.487322,-8.006714,-1.678025
1.403,-4.455448,-8.024331,-1.693701
1.423,-4.42059,-8.03002,-1.699325
1.443,-4.386149,-8.027096,-1.69645
1.463,-4.355844,-8.018162,-1.687489
1.483,-4.333147,-8.009367,-1.675249
1.503,-4.31559,-8.006376,-1.66491
1.523,-4.300671,-8.012351,-1.655553
1.543,-4.288221,-8.025995,-1.648447
1.563,-4.278765,-8.040485,-1.641132
1.583,-4.273741,-8.051254,-1.633986
1.603,-4.270844,-8.060239,-1.628186
1.623,-4.270797,-8.071251,-1.623819
1.643,-4.275541,-8.085195,-1.621017
1.663,-4.284379,-8.100801,-1.618899
1.683,-4.293231,-8.116291,-1.61448
1.703,-4.295506,-8.129678,-1.607477
1.723,-4.289047,-8.132939,-1.593693
1.743,-4.274007,-8.121134,-1.572273
1.763,-4.253599,-8.092772,-1.546398
1.783,-4.230549,-8.056075,-1.518206
1.803,-4.204039,-8.02056,-1.48719
1.823,-4.171103,-7.98374,-1.456635
1.843,-4.131768,-7.940228,-1.425982
1.863,-4.084037,-7.885269,-1.394488
1.883,-4.02506,-7.82089,-1.364814
1.903,-3.963551,-7.760273,-1.341527
1.923,-3.919724,-7.717999,-1.325311
1.943,-3.895439,-7.709397,-1.31915
1.963,-3.882709,-7.743896,-1.322262
1.983,-3.883018,-7.811066,-1.329147
2.003,-3.897394,-7.878268,-1.332968
2.023,-3.920157,-7.917111,-1.331008
2.043,-3.948385,-7.930773,-1.318989
2.063,-3.980631,-7.93629,-1.292441
2.083,-4.008937,-7.938718,-1.250256
2.103,-4.028068,-7.931518,-1.192228
2.123,-4.048735,-7.910502,-1.120556
2.143,-4.070627,-7.874235,-1.04327
2.163,-4.084426,-7.83483,-0.971938
2.183,-4.100376,-7.802191,-0.909095
2.203,-4.124031,-7.77073,-0.858847
2.223,-4.147168,-7.729963,-0.819147
2.243,-4.155853,-7.680826,-0.797903
2.263,-4.151683,-7.611213,-0.813046
2.283,-4.136939,-7.522375,-0.887324
2.303,-4.115461,-7.411394,-1.027488
2.323,-4.112,-7.279637,-1.187306
2.343,-4.137849,-7.101323,-1.302971
2.363,-4.185172,-6.889298,-1.361503
2.383,-4.195053,-6.643608,-1.372028
2.403,-4.13436,-6.350702,-1.429532
2.423,-4.036266,-6.01301,-1.734603
2.443,-4.102985,-6.342902,-2.561419
2.463,-4.282401,-8.626513,-4.327118
2.483,-3.822218,-15.4537,-6.24507
2.503,-3.243686,-19.37662,-6.062193
2.523,-2.480152,-17.75097,-5.786527
2.543,-1.312722,-16.18679,-5.994823
2.563,0.154986,-15.55503,-6.5756
2.583,0.61974,-14.53279,-5.92207
2.603,0.450384,-13.96763,-5.164613
2.707,-0.334158,-12.53325,-4.228076
2.727,-0.588251,-10.55935,-3.426899
2.747,-0.29856,-8.283998,-3.085445
2.767,0.045213,-6.213614,-3.014142
2.787,0.225715,-4.806423,-3.144122
2.807,0.433525,-4.023313,-3.275607
2.827,0.384743,-4.959053,-3.539681
2.847,-0.524422,-8.842801,-3.769716
2.867,-0.761839,-12.2281,-3.874378
2.887,0.044792,-13.28937,-4.089456
2.907,0.859327,-13.0614,-4.446833
2.927,1.263592,-11.53607,-4.887308
2.947,1.454343,-8.883638,-5.137722
2.967,1.510827,-5.161544,-4.769782
2.987,1.334919,-2.935576,-4.483248
3.007,1.013119,-2.870711,-4.807751
3.027,0.918252,-3.816466,-5.491307
3.047,1.614887,-8.817733,-6.395728
3.067,0.868359,-9.508109,-7.168188
3.087,0.472354,-10.65521,-7.226629
3.107,0.555635,-10.25593,-7.374467
3.127,0.971856,-8.92485,-7.24719
3.147,1.428793,-8.162395,-7.25538
3.167,1.829158,-7.423082,-7.18812
3.187,2.005631,-6.585853,-7.236878
3.207,1.907175,-6.102912,-7.257269
3.227,1.688332,-6.070768,-7.227706
3.247,1.597044,-6.226418,-7.238986
3.267,1.64741,-6.299714,-7.301233
3.287,1.700633,-6.222754,-7.329099
3.307,1.729456,-6.002202,-7.328968
3.327,1.745651,-5.717167,-7.316195
3.347,1.752612,-5.484933,-7.303455
3.367,1.752609,-5.398019,-7.308964
3.387,1.777922,-5.531026,-7.344427
3.407,1.738781,-5.81273,-7.394541
3.427,1.656145,-5.962799,-7.428721
3.447,1.627194,-5.944256,-7.480387
3.467,1.635495,-5.913764,-7.526279
3.487,1.638416,-5.963815,-7.565374
3.507,1.576687,-6.017096,-7.596192
3.527,1.495652,-6.020674,-7.598982
3.547,1.453305,-5.986045,-7.587335
3.567,1.438665,-5.972384,-7.573464
3.587,1.436807,-5.994789,-7.560592
3.607,1.433499,-6.014086,-7.529102
3.627,1.433443,-6.027687,-7.485337
3.647,1.439735,-6.054684,-7.437903
3.667,1.435479,-6.071131,-7.374079
3.687,1.431954,-6.094473,-7.29953
3.707,1.425775,-6.121006,-7.229801
3.727,1.420188,-6.154058,-7.168613
3.747,1.413925,-6.178918,-7.110644
3.767,1.40936,-6.202156,-7.057235
3.787,1.403916,-6.228538,-7.019302
3.807,1.395914,-6.255814,-6.995347
3.827,1.393035,-6.276187,-6.983014
3.847,1.391724,-6.289272,-6.97599
3.867,1.388793,-6.2975,-6.9698
3.887,1.386102,-6.303707,-6.96709
3.907,1.386642,-6.30558,-6.972195
3.927,1.390729,-6.302744,-6.980507
3.947,1.395472,-6.295943,-6.989358
3.967,1.39755,-6.289166,-6.996346
3.987,1.39791,-6.282413,-7.002498
4.007,1.398111,-6.274851,-7.009719
4.027,1.397542,-6.267748,-7.018107
4.047,1.39499,-6.26181,-7.025301
4.067,1.390882,-6.257074,-7.03081
4.087,1.386831,-6.252001,-7.034923
4.107,1.382921,-6.246556,-7.037765
4.127,1.379275,-6.241336,-7.040212
4.147,1.375882,-6.235712,-7.041867
4.167,1.372983,-6.229857,-7.04378
4.187,1.370386,-6.223191,-7.044409
4.207,1.368653,-6.215755,-7.045987
4.227,1.367298,-6.208111,-7.047813
4.247,1.365035,-6.200972,-7.050685
4.267,1.362765,-6.194731,-7.054763
4.287,1.362027,-6.192575,-7.060157
4.307,1.357865,-6.186338,-7.06363
4.327,1.355467,-6.176744,-7.067396
4.347,1.356015,-6.170534,-7.072471
4.367,1.35404,-6.164953,-7.076302
4.387,1.352731,-6.159932,-7.079401
4.407,1.352695,-6.15349,-7.083055
4.427,1.352417,-6.147532,-7.085402
4.447,1.350671,-6.141593,-7.086533
4.467,1.349244,-6.135952,-7.087631
4.487,1.348289,-6.131029,-7.088912
4.507,1.346965,-6.126018,-7.090192
4.527,1.345642,-6.121459,-7.091541
4.547,1.344547,-6.117184,-7.093748
4.567,1.343099,-6.112993,-7.096644
4.587,1.341247,-6.109032,-7.099633
4.607,1.339658,-6.105326,-7.102911
4.627,1.338078,-6.101255,-7.105679
4.647,1.336656,-6.09701,-7.108086
4.667,1.335329,-6.092912,-7.110497
4.687,1.334211,-6.089165,-7.112658
4.769,1.33268,-6.085721,-7.114546
4.789,1.331502,-6.08179,-7.116481
4.809,1.33018,-6.077858,-7.118186
4.829,1.329228,-6.074223,-7.120183
4.849,1.32869,-6.070481,-7.122522
4.869,1.327915,-6.066765,-7.124897
4.889,1.326663,-6.063332,-7.126661
4.909,1.325628,-6.060743,-7.12853
4.929,1.324804,-6.057463,-7.130356
4.949,1.323784,-6.054322,-7.131858
4.969,1.322734,-6.051039,-7.132904
4.989,1.322122,-6.047923,-7.134345
5.009,1.321213,-6.044998,-7.135946
5.029,1.320222,-6.042288,-7.137269
5.049,1.319148,-6.039462,-7.138724
5.069,1.318473,-6.036523,-7.14015
5.089,1.317438,-6.033851,-7.141598
5.109,1.316399,-6.031237,-7.143095
5.129,1.315453,-6.028594,-7.144666
5.149,1.31484,-6.026147,-7.146102
5.169,1.314141,-6.023502,-7.147357
5.189,1.313402,-6.020885,-7.148511
5.209,1.312622,-6.018457,-7.149967
5.229,1.311802,-6.016188,-7.151321
5.249,1.310966,-6.013938,-7.152722
5.269,1.310593,-6.011309,-7.153781
5.289,1.310201,-6.008995,-7.154891
5.309,1.309572,-6.006752,-7.155839
5.329,1.308807,-6.004605,-7.156873
5.349,1.308169,-6.002475,-7.157896
5.369,1.307585,-6.000411,-7.159053
5.389,1.307078,-5.998462,-7.160174
5.409,1.306433,-5.99655,-7.161428
5.429,1.305747,-5.994302,-7.16243
5.449,1.305187,-5.992243,-7.163422
5.469,1.304585,-5.990222,-7.164643
5.489,1.304085,-5.988287,-7.165588
5.509,1.30371,-5.98653,-7.166908
5.529,1.303218,-5.984796,-7.167639
5.549,1.302516,-5.982553,-7.168196
5.569,1.301797,-5.980571,-7.169106
5.589,1.301061,-5.979016,-7.170486
5.609,1.300381,-5.977572,-7.171804
5.629,1.299731,-5.975784,-7.172942
5.649,1.299112,-5.974134,-7.174356
5.669,1.298738,-5.97238,-7.17542
5.689,1.29844,-5.970285,-7.176353
5.709,1.298241,-5.968282,-7.177326
5.729,1.298067,-5.9663,-7.178312
5.749,1.297513,-5.964289,-7.179457
5.769,1.296508,-5.962729,-7.180182
5.789,1.295323,-5.961209,-7.180853
5.809,1.294508,-5.960302,-7.182091
5.829,1.292744,-5.958591,-7.182288
5.849,1.291907,-5.957184,-7.182889
5.869,1.291222,-5.955887,-7.183749
5.889,1.290856,-5.954938,-7.184408
5.909,1.289511,-5.952922,-7.18439
5.929,1.287869,-5.950494,-7.184492
5.949,1.286865,-5.949623,-7.18579
5.969,1.28525,-5.948905,-7.187099
5.989,1.284608,-5.948241,-7.18837
6.009,1.283972,-5.946076,-7.18951
6.029,1.284444,-5.943884,-7.190662
6.049,1.284337,-5.942218,-7.191587
6.069,1.283608,-5.941143,-7.192455
6.089,1.283102,-5.939575,-7.193338
6.109,1.282649,-5.937449,-7.194117
6.129,1.281626,-5.935775,-7.194408
6.149,1.280158,-5.934764,-7.194817
6.169,1.279232,-5.93417,-7.195724
6.189,1.277932,-5.933199,-7.196958
6.209,1.276956,-5.932238,-7.198083
6.229,1.276397,-5.930472,-7.199222
6.249,1.276059,-5.928532,-7.200851
6.269,1.275724,-5.926492,-7.202272
6.289,1.275249,-5.924928,-7.203488
6.309,1.274539,-5.923618,-7.20486
6.329,1.273933,-5.922441,-7.206409
6.349,1.273284,-5.92075,-7.207536
6.369,1.27245,-5.91941,-7.207933
6.389,1.271553,-5.918156,-7.208446
6.409,1.270881,-5.916818,-7.209169
6.429,1.270478,-5.915709,-7.209718
6.449,1.269816,-5.914492,-7.210069
6.469,1.269328,-5.913167,-7.210657
6.489,1.268917,-5.911784,-7.211286
6.509,1.268151,-5.910534,-7.212053
6.529,1.267369,-5.909536,-7.213315
6.549,1.266762,-5.908332,-7.21442
6.569,1.266042,-5.906854,-7.215155
6.589,1.265496,-5.905581,-7.215979
6.609,1.264812,-5.904704,-7.21665
6.629,1.264039,-5.903597,-7.217124
6.649,1.263561,-5.90262,-7.217736
6.669,1.262992,-5.901438,-7.218271
6.689,1.262836,-5.900292,-7.218489
6.709,1.262347,-5.899492,-7.219111
6.729,1.261862,-5.898725,-7.2198
6.749,1.261573,-5.897749,-7.219979
6.842,1.261072,-5.896711,-7.220395
6.862,1.261031,-5.895493,-7.220759
6.882,1.260727,-5.894238,-7.221048
6.902,1.260282,-5.893164,-7.221957
6.922,1.25989,-5.89222,-7.222928
6.942,1.259238,-5.891333,-7.223746
6.962,1.258664,-5.890527,-7.224532
6.982,1.258312,-5.889849,-7.225717
7.002,1.257772,-5.88877,-7.226411
7.022,1.257165,-5.887798,-7.227122
7.042,1.256636,-5.887028,-7.227874
7.062,1.256352,-5.886193,-7.22893
7.082,1.256191,-5.884888,-7.229185
7.102,1.255408,-5.883835,-7.229437
7.122,1.254825,-5.883271,-7.229806
7.142,1.254056,-5.88324,-7.230316
7.162,1.253511,-5.883281,-7.230844
7.182,1.253138,-5.883202,-7.231846
7.202,1.252722,-5.883339,-7.233222
7.222,1.252118,-5.883691,-7.23475
7.242,1.252142,-5.883536,-7.235665
7.262,1.254297,-5.882209,-7.236332
7.282,1.255712,-5.881159,-7.2368
7.302,1.25515,-5.883424,-7.237647
7.322,1.253899,-5.887198,-7.239275
7.342,1.254457,-5.890408,-7.242539
7.362,1.2552,-5.892556,-7.241868
7.382,1.257659,-5.895329,-7.238785
7.402,1.258873,-5.899271,-7.235111
7.422,1.261368,-5.905401,-7.23303
7.442,1.265562,-5.911685,-7.229677
7.462,1.269857,-5.915487,-7.223987
7.482,1.274229,-5.920593,-7.219168
7.502,1.278055,-5.929143,-7.21466
7.522,1.281076,-5.939571,-7.207133
7.543,1.284139,-5.950613,-7.198053
7.563,1.288201,-5.962813,-7.188585
7.583,1.290929,-5.977525,-7.178039
7.603,1.292385,-5.995465,-7.164629
7.623,1.29397,-6.013394,-7.14805
7.643,1.296042,-6.031766,-7.129481
7.663,1.296345,-6.048877,-7.104347
7.683,1.299758,-6.066247,-7.079032
7.703,1.302538,-6.085575,-7.050284
7.723,1.301747,-6.107918,-7.020267
7.743,1.297325,-6.134538,-6.98909
7.763,1.294767,-6.157756,-6.957722
7.783,1.297764,-6.175666,-6.926356
7.803,1.2975,-6.198065,-6.898201
7.823,1.292833,-6.233624,-6.873608
7.843,1.288835,-6.274502,-6.849308
7.863,1.292945,-6.305897,-6.823623
7.883,1.300414,-6.324648,-6.793598
7.903,1.303068,-6.34515,-6.759061
7.923,1.303134,-6.374522,-6.723888
7.943,1.305426,-6.406353,-6.687798
7.963,1.309538,-6.432288,-6.647424
7.983,1.310879,-6.456503,-6.602857
8.003,1.308137,-6.485934,-6.555072
8.023,1.305902,-6.516125,-6.503383
8.043,1.308405,-6.539453,-6.444748
8.063,1.311697,-6.561997,-6.38111
8.083,1.310887,-6.591068,-6.308753
8.103,1.309749,-6.623646,-6.231334
8.123,1.311208,-6.654089,-6.148052
8.143,1.312006,-6.684914,-6.058344
8.163,1.313299,-6.716387,-5.957173
8.183,1.314244,-6.748106,-5.844095
8.203,1.314844,-6.783853,-5.724833
8.223,1.316803,-6.819188,-5.599228
8.243,1.318168,-6.850192,-5.46165
8.263,1.319495,-6.881462,-5.315288
8.283,1.321312,-6.910679,-5.158156
8.303,1.321554,-6.941337,-4.986885
8.323,1.322465,-6.976754,-4.806191
8.343,1.314723,-6.987194,-4.622875
8.363,1.320322,-7.028235,-4.471382
8.383,1.325363,-7.07851,-4.316791
8.403,1.323506,-7.123352,-4.157513
8.423,1.326814,-7.164697,-3.99403
8.443,1.331048,-7.203284,-3.819067
8.463,1.335981,-7.237978,-3.638817
8.483,1.336747,-7.271923,-3.451158
8.503,1.33741,-7.308911,-3.268038
8.523,1.33888,-7.338902,-3.084215
8.543,1.340766,-7.355962,-2.89958
8.563,1.345387,-7.374003,-2.7227
8.583,1.347782,-7.3967,-2.554268
8.603,1.349867,-7.425632,-2.392004
8.623,1.352074,-7.457935,-2.230855
8.643,1.358593,-7.483375,-2.077019
8.663,1.35547,-7.512864,-1.925439
8.683,1.353718,-7.562562,-1.793871
8.703,1.357563,-7.606464,-1.658466
8.723,1.357179,-7.650891,-1.520162
8.743,1.356249,-7.695244,-1.386512
8.763,1.354825,-7.737755,-1.261124
8.783,1.353822,-7.782188,-1.145995
8.803,1.35611,-7.821368,-1.037604
8.823,1.35519,-7.854887,-0.923482
