accel_time_list,accel_x_list,accel_y_list,accel_z_list
0.010000,0.215000,-1.107500,10.220000
0.030000,-0.147500,-0.872500,10.185000
0.050000,-0.242500,-0.750000,10.150000
0.070000,-0.185000,-0.697500,10.182500
0.090000,-0.325000,-0.670000,10.260000
0.110000,-0.760000,-0.770000,10.282500
0.130000,-0.705000,-0.690000,10.322500
0.150000,-0.590000,-0.587500,10.335000
0.170000,-0.625000,-0.482500,10.305000
0.190000,-0.675000,-0.345000,10.260000
0.210000,-0.670000,-0.182500,10.215000
0.230000,-0.670000,-0.007500,10.170000
0.250000,-0.700000,0.167500,10.150000
0.270000,-0.732500,0.332500,10.162500
0.290000,-0.795000,0.457500,10.205000
0.310000,-0.897500,0.502500,10.242500
0.330000,-0.990000,0.530000,10.270000
0.350000,-1.057500,0.600000,10.322500
0.370000,-1.140000,0.690000,10.380000
0.390000,-1.247500,0.730000,10.417500
0.410000,-1.347500,0.707500,10.437500
0.430000,-1.412500,0.665000,10.452500
0.450000,-1.470000,0.617500,10.470000
0.470000,-1.545000,0.557500,10.485000
0.490000,-1.620000,0.487500,10.490000
0.510000,-1.672500,0.417500,10.490000
0.530000,-1.707500,0.360000,10.485000
0.550000,-1.755000,0.310000,10.485000
0.570000,-1.810000,0.257500,10.480000
0.590000,-1.847500,0.200000,10.470000
0.610000,-1.867500,0.142500,10.465000
0.630000,-1.900000,0.095000,10.467500
0.650000,-1.950000,0.055000,10.467500
0.670000,-1.997500,0.010000,10.470000
0.690000,-2.037500,-0.027500,10.472500
0.710000,-2.080000,-0.052500,10.477500
0.730000,-2.135000,-0.070000,10.480000
0.750000,-2.182500,-0.095000,10.475000
0.770000,-2.217500,-0.125000,10.472500
0.790000,-2.252500,-0.150000,10.467500
0.810000,-2.295000,-0.167500,10.460000
0.830000,-2.330000,-0.187500,10.445000
0.850000,-2.352500,-0.207500,10.422500
0.870000,-2.372500,-0.217500,10.395000
0.890000,-2.392500,-0.217500,10.370000
0.910000,-2.407500,-0.220000,10.337500
0.930000,-2.422500,-0.225000,10.300000
0.950000,-2.440000,-0.227500,10.260000
0.970000,-2.447500,-0.217500,10.210000
0.990000,-2.445000,-0.202500,10.157500
1.010000,-2.437500,-0.187500,10.100000
1.030000,-2.427500,-0.172500,10.037500
1.050000,-2.415000,-0.157500,9.967500
1.070000,-2.400000,-0.147500,9.895000
1.090000,-2.382500,-0.137500,9.817500
1.110000,-2.362500,-0.122500,9.737500
1.130000,-2.345000,-0.105000,9.652500
1.150000,-2.335000,-0.090000,9.562500
1.170000,-2.327500,-0.077500,9.467500
1.190000,-2.315000,-0.070000,9.362500
1.210000,-2.300000,-0.065000,9.250000
1.230000,-2.287500,-0.067500,9.127500
1.250000,-2.280000,-0.070000,8.997500
1.270000,-2.272500,-0.065000,8.855000
1.290000,-2.270000,-0.062500,8.707500
1.310000,-2.275000,-0.060000,8.560000
1.330000,-2.282500,-0.055000,8.397500
1.350000,-2.305000,-0.055000,8.215000
1.370000,-2.360000,-0.060000,8.010000
1.390000,-2.440000,-0.070000,7.785000
1.410000,-2.527500,-0.085000,7.530000
1.430000,-2.615000,-0.090000,7.260000
1.450000,-2.710000,-0.102500,6.987500
1.470000,-2.782500,-0.165000,6.537500
1.490000,-2.772500,-0.267500,5.645000
1.510000,-2.880000,-0.300000,4.802500
1.530000,-3.377500,-0.450000,5.632500
1.550000,-4.080000,-0.537500,7.092500
1.570000,-3.020000,-1.822500,13.862500
1.590000,-4.132500,-3.830000,7.582500
1.610000,1.302500,-4.715000,-0.177500
1.630000,15.000000,-1.140000,-7.297500
1.650000,7.912500,2.397500,-4.312500
1.670000,-1.560000,3.380000,-1.485000
1.690000,-6.747500,2.687500,-0.065000
1.710000,-6.905000,1.855000,0.020000
1.730000,-5.840000,0.887500,-0.882500
1.750000,-3.802500,0.062500,-1.522500
1.770000,0.137500,-0.470000,-1.292500
1.790000,4.657500,-0.845000,-0.702500
1.810000,5.822500,-0.962500,0.087500
1.830000,5.327500,-0.837500,0.925000
1.850000,4.710000,-0.590000,1.722500
1.870000,4.615000,-0.302500,2.195000
1.890000,5.165000,-0.285000,2.327500
1.910000,6.042500,-0.590000,2.267500
1.930000,6.657500,-1.027500,2.187500
1.950000,6.685000,-1.442500,2.247500
1.970000,6.410000,-1.687500,2.490000
1.990000,5.997500,-1.742500,2.847500
2.010000,5.457500,-1.697500,3.205000
2.030000,4.840000,-1.637500,3.552500
2.050000,4.257500,-1.580000,3.907500
2.070000,3.707500,-1.535000,4.340000
2.090000,3.042500,-1.545000,5.147500
2.110000,1.512500,-1.577500,8.535000
2.130000,-0.175000,-1.637500,11.600000
2.150000,-0.302500,-1.467500,11.245000
2.170000,-0.007500,-1.270000,10.672500
2.190000,0.070000,-1.047500,10.032500
2.210000,-0.025000,-0.825000,9.522500
2.230000,0.035000,-0.655000,9.200000
2.250000,0.282500,-0.575000,9.012500
2.270000,0.525000,-0.575000,8.932500
2.290000,0.595000,-0.592500,8.870000
2.310000,0.602500,-0.550000,8.892500
2.330000,0.610000,-0.457500,8.985000
2.350000,0.537500,-0.375000,9.217500
2.370000,0.275000,-0.290000,9.682500
2.390000,0.012500,-0.317500,10.222500
2.410000,-0.045000,-0.420000,10.400000
2.430000,0.055000,-0.535000,10.280000
2.450000,0.115000,-0.577500,10.150000
2.470000,0.077500,-0.507500,10.130000
2.490000,0.005000,-0.420000,10.215000
2.510000,-0.050000,-0.400000,10.307500
2.530000,-0.080000,-0.440000,10.362500
2.550000,-0.100000,-0.490000,10.365000
2.570000,-0.117500,-0.530000,10.342500
2.590000,-0.117500,-0.552500,10.345000
2.610000,-0.137500,-0.520000,10.382500
2.630000,-0.197500,-0.475000,10.415000
2.650000,-0.247500,-0.492500,10.422500
2.670000,-0.245000,-0.542500,10.432500
2.690000,-0.230000,-0.597500,10.440000
2.710000,-0.222500,-0.647500,10.447500
2.730000,-0.227500,-0.687500,10.447500
2.750000,-0.230000,-0.717500,10.452500
2.770000,-0.230000,-0.737500,10.457500
2.790000,-0.235000,-0.765000,10.462500
2.810000,-0.240000,-0.797500,10.472500
2.830000,-0.242500,-0.835000,10.482500
2.850000,-0.245000,-0.870000,10.487500
2.870000,-0.250000,-0.907500,10.492500
2.890000,-0.262500,-0.940000,10.500000
2.910000,-0.282500,-0.970000,10.515000
2.930000,-0.307500,-0.990000,10.522500
2.950000,-0.322500,-1.002500,10.520000
2.970000,-0.337500,-1.005000,10.522500
2.990000,-0.362500,-1.005000,10.530000
3.010000,-0.390000,-0.997500,10.545000
3.030000,-0.422500,-0.997500,10.557500
3.050000,-0.455000,-1.000000,10.557500
3.070000,-0.480000,-1.010000,10.552500
3.090000,-0.507500,-1.017500,10.552500
3.110000,-0.542500,-1.035000,10.562500
3.130000,-0.592500,-1.060000,10.570000
3.150000,-0.640000,-1.087500,10.570000
3.170000,-0.677500,-1.100000,10.560000
3.190000,-0.710000,-1.100000,10.547500
3.210000,-0.757500,-1.112500,10.540000
3.230000,-0.817500,-1.135000,10.540000
3.250000,-0.875000,-1.145000,10.532500
3.270000,-0.922500,-1.140000,10.520000
3.290000,-0.967500,-1.135000,10.505000
3.310000,-1.020000,-1.142500,10.487500
3.330000,-1.080000,-1.155000,10.472500
3.350000,-1.142500,-1.165000,10.462500
3.370000,-1.202500,-1.177500,10.452500
3.390000,-1.270000,-1.190000,10.445000
3.410000,-1.340000,-1.200000,10.432500
3.430000,-1.402500,-1.200000,10.410000
3.450000,-1.457500,-1.200000,10.387500
3.470000,-1.517500,-1.207500,10.365000
3.490000,-1.595000,-1.217500,10.347500
3.510000,-1.675000,-1.220000,10.327500
3.530000,-1.740000,-1.220000,10.305000
3.550000,-1.805000,-1.222500,10.280000
3.570000,-1.880000,-1.232500,10.257500
3.590000,-1.950000,-1.240000,10.242500
3.610000,-2.015000,-1.247500,10.227500
3.630000,-2.080000,-1.252500,10.207500
3.650000,-2.147500,-1.257500,10.187500
3.670000,-2.215000,-1.260000,10.165000
3.690000,-2.275000,-1.260000,10.142500
3.710000,-2.340000,-1.260000,10.117500
3.730000,-2.415000,-1.267500,10.100000
3.750000,-2.497500,-1.275000,10.090000
3.770000,-2.567500,-1.275000,10.077500
3.790000,-2.630000,-1.270000,10.060000
3.810000,-2.707500,-1.272500,10.047500
3.830000,-2.790000,-1.275000,10.037500
3.850000,-2.857500,-1.272500,10.022500
3.870000,-2.915000,-1.272500,10.002500
3.890000,-2.970000,-1.285000,9.982500
3.910000,-3.027500,-1.297500,9.965000
3.930000,-3.065000,-1.300000,9.945000
3.950000,-3.092500,-1.295000,9.935000
3.970000,-3.130000,-1.290000,9.930000
3.990000,-3.177500,-1.287500,9.925000
4.010000,-3.212500,-1.277500,9.920000
4.030000,-3.235000,-1.260000,9.917500
4.050000,-3.265000,-1.247500,9.917500
4.070000,-3.295000,-1.247500,9.915000
4.090000,-3.315000,-1.245000,9.907500
4.110000,-3.330000,-1.240000,9.887500
4.130000,-3.350000,-1.232500,9.872500
4.150000,-3.387500,-1.225000,9.860000
4.170000,-3.425000,-1.220000,9.847500
4.190000,-3.457500,-1.210000,9.830000
4.210000,-3.492500,-1.205000,9.815000
4.230000,-3.537500,-1.202500,9.802500
4.250000,-3.585000,-1.195000,9.785000
4.270000,-3.630000,-1.187500,9.767500
4.290000,-3.675000,-1.180000,9.752500
4.310000,-3.730000,-1.177500,9.737500
4.330000,-3.785000,-1.172500,9.720000
4.350000,-3.832500,-1.170000,9.697500
4.370000,-3.875000,-1.167500,9.672500
4.390000,-3.915000,-1.167500,9.652500
4.410000,-3.945000,-1.165000,9.637500
4.430000,-3.967500,-1.160000,9.622500
4.450000,-3.992500,-1.152500,9.605000
4.470000,-4.030000,-1.147500,9.592500
4.490000,-4.067500,-1.142500,9.585000
4.510000,-4.092500,-1.132500,9.572500
4.530000,-4.110000,-1.125000,9.557500
4.550000,-4.132500,-1.117500,9.545000
4.570000,-4.160000,-1.115000,9.532500
4.590000,-4.180000,-1.107500,9.520000
4.610000,-4.200000,-1.102500,9.507500
4.630000,-4.225000,-1.095000,9.497500
4.650000,-4.247500,-1.085000,9.490000
4.670000,-4.267500,-1.075000,9.480000
4.690000,-4.287500,-1.067500,9.472500
4.710000,-4.307500,-1.060000,9.467500
4.730000,-4.330000,-1.052500,9.460000
4.750000,-4.347500,-1.042500,9.452500
4.770000,-4.362500,-1.032500,9.445000
4.790000,-4.382500,-1.027500,9.440000
4.810000,-4.405000,-1.020000,9.435000
4.830000,-4.422500,-1.007500,9.430000
4.850000,-4.440000,-0.997500,9.427500
4.870000,-4.460000,-0.985000,9.430000
4.890000,-4.482500,-0.972500,9.430000
4.910000,-4.497500,-0.960000,9.430000
4.930000,-4.510000,-0.945000,9.432500
4.950000,-4.532500,-0.925000,9.452500
4.970000,-4.562500,-0.897500,9.480000
4.990000,-4.590000,-0.870000,9.500000
5.010000,-4.605000,-0.857500,9.520000
5.030000,-4.615000,-0.875000,9.545000
5.050000,-4.617500,-0.895000,9.577500
5.070000,-4.610000,-0.912500,9.605000
5.090000,-4.590000,-0.937500,9.630000
5.110000,-4.560000,-0.975000,9.652500
5.130000,-4.517500,-1.025000,9.670000
5.150000,-4.470000,-1.072500,9.685000
5.170000,-4.422500,-1.110000,9.695000
5.190000,-4.377500,-1.142500,9.697500
5.210000,-4.337500,-1.172500,9.695000
5.230000,-4.302500,-1.197500,9.690000
5.250000,-4.265000,-1.212500,9.680000
5.270000,-4.227500,-1.215000,9.670000
5.290000,-4.195000,-1.210000,9.655000
5.310000,-4.162500,-1.207500,9.640000
5.330000,-4.130000,-1.200000,9.620000
5.350000,-4.102500,-1.190000,9.607500
5.370000,-4.082500,-1.180000,9.597500
5.390000,-4.072500,-1.167500,9.587500
5.410000,-4.062500,-1.150000,9.580000
5.430000,-4.050000,-1.120000,9.572500
5.450000,-4.035000,-1.092500,9.570000
5.470000,-4.017500,-1.070000,9.570000
5.490000,-3.995000,-1.045000,9.570000
5.510000,-3.980000,-1.012500,9.560000
5.530000,-3.957500,-0.992500,9.565000
5.550000,-3.907500,-0.980000,9.575000
5.570000,-3.862500,-0.977500,9.580000
5.590000,-3.822500,-0.977500,9.585000
5.610000,-3.785000,-0.985000,9.595000
5.630000,-3.755000,-0.995000,9.605000
5.650000,-3.722500,-1.005000,9.612500
5.670000,-3.687500,-1.012500,9.620000
5.690000,-3.647500,-1.015000,9.630000
5.710000,-3.612500,-1.022500,9.640000
5.730000,-3.575000,-1.042500,9.650000
5.750000,-3.537500,-1.057500,9.660000
5.770000,-3.495000,-1.070000,9.670000
5.790000,-3.457500,-1.077500,9.682500
5.810000,-3.422500,-1.085000,9.695000
5.830000,-3.385000,-1.097500,9.705000
5.850000,-3.342500,-1.110000,9.712500
5.870000,-3.305000,-1.120000,9.720000
5.890000,-3.272500,-1.127500,9.730000
5.910000,-3.232500,-1.137500,9.737500
5.930000,-3.190000,-1.152500,9.745000
5.950000,-3.152500,-1.162500,9.752500
5.970000,-3.125000,-1.177500,9.762500
5.990000,-3.085000,-1.195000,9.770000
