gyro_time_list,gyro_x_list,gyro_y_list,gyro_z_list
0.675,0.067681,-0.727576,-0.367585
0.695,0.072877,-0.74323,-0.370116
0.715,0.079185,-0.760361,-0.375757
0.735,0.084006,-0.777941,-0.380944
0.755,0.083699,-0.796461,-0.385417
0.775,0.078227,-0.814823,-0.388267
0.795,0.071552,-0.831749,-0.388891
0.815,0.063988,-0.846223,-0.387508
0.835,0.056166,-0.857697,-0.384713
0.855,0.050653,-0.865678,-0.379752
0.875,0.047213,-0.870375,-0.372336
0.895,0.047522,-0.872381,-0.362696
0.915,0.052972,-0.872725,-0.351825
0.935,0.061245,-0.872297,-0.340479
0.955,0.070836,-0.871629,-0.329897
0.975,0.082771,-0.87108,-0.320964
0.995,0.093627,-0.871047,-0.314069
1.015,0.101875,-0.871991,-0.308906
1.035,0.107316,-0.873359,-0.305301
1.055,0.110941,-0.875101,-0.302721
1.075,0.113037,-0.877159,-0.301151
1.095,0.112904,-0.879839,-0.30054
1.115,0.110581,-0.882721,-0.300631
1.135,0.106822,-0.885427,-0.301259
1.155,0.102469,-0.88761,-0.302425
1.175,0.096837,-0.889094,-0.303847
1.195,0.089944,-0.889775,-0.30541
1.215,0.082949,-0.889695,-0.306899
1.235,0.076207,-0.889112,-0.308092
1.255,0.069721,-0.88832,-0.308959
1.275,0.062701,-0.887414,-0.309086
1.295,0.055253,-0.885831,-0.308209
1.315,0.048829,-0.883243,-0.30655
1.335,0.045467,-0.879297,-0.304374
1.355,0.045941,-0.874102,-0.301477
1.375,0.048768,-0.867864,-0.298197
1.395,0.05233,-0.861152,-0.294692
1.415,0.05626,-0.854716,-0.291016
1.435,0.059866,-0.848817,-0.287139
1.455,0.063192,-0.843431,-0.282999
1.475,0.065793,-0.838528,-0.278695
1.495,0.068068,-0.834087,-0.274215
1.515,0.071412,-0.830249,-0.269829
1.535,0.075485,-0.827292,-0.265845
1.555,0.078436,-0.825429,-0.262435
1.575,0.081167,-0.824198,-0.259772
1.595,0.084296,-0.823222,-0.257926
1.615,0.087032,-0.822366,-0.256729
1.635,0.089556,-0.821473,-0.256134
1.655,0.092219,-0.820338,-0.256195
1.675,0.0949,-0.818812,-0.256872
1.695,0.097349,-0.816734,-0.257977
1.715,0.09904,-0.814155,-0.259129
1.735,0.09918,-0.811017,-0.260273
1.755,0.097996,-0.807095,-0.261432
1.775,0.096243,-0.802189,-0.262585
1.795,0.094586,-0.79601,-0.263559
1.815,0.092892,-0.788427,-0.264049
1.835,0.091289,-0.779353,-0.263985
1.855,0.089941,-0.768677,-0.263377
1.875,0.088945,-0.756393,-0.262364
1.895,0.088389,-0.742685,-0.261019
1.915,0.087573,-0.727776,-0.259334
1.935,0.086017,-0.711735,-0.2573
1.955,0.083492,-0.694444,-0.25523
1.975,0.080291,-0.675963,-0.253286
1.995,0.077011,-0.656441,-0.251376
2.015,0.073722,-0.635987,-0.249399
2.035,0.070349,-0.614469,-0.247503
2.055,0.067483,-0.591726,-0.245786
2.075,0.06532,-0.56787,-0.244164
2.095,0.063859,-0.543064,-0.242357
2.115,0.062606,-0.51727,-0.240201
2.135,0.061271,-0.490393,-0.237815
2.155,0.059736,-0.462417,-0.235267
2.175,0.058273,-0.433546,-0.23259
2.195,0.05723,-0.403975,-0.229789
2.215,0.056166,-0.373815,-0.22705
2.235,0.054848,-0.343062,-0.224563
2.255,0.053375,-0.311821,-0.222429
2.275,0.051639,-0.280332,-0.220654
2.295,0.049546,-0.248782,-0.219108
2.315,0.046735,-0.217332,-0.217771
2.335,0.043236,-0.185939,-0.216636
2.355,0.039801,-0.154593,-0.215677
2.375,0.036433,-0.123483,-0.214751
2.395,0.032855,-0.092788,-0.213771
2.415,0.029037,-0.062485,-0.212666
2.435,0.025231,-0.032467,-0.211354
2.455,0.021477,-0.002918,-0.209699
2.475,0.017947,0.026044,-0.207695
2.495,0.014766,0.054551,-0.205386
2.515,0.011648,0.082682,-0.202863
2.535,0.009116,0.110547,-0.200369
2.555,0.00721,0.138208,-0.198059
2.575,0.006107,0.165637,-0.19582
2.595,0.004973,0.192216,-0.19349
2.615,0.003744,0.217423,-0.19123
2.635,0.003501,0.241472,-0.188945
2.655,0.004074,0.264714,-0.186597
2.794,0.001491,0.294909,-0.183762
2.814,0.000084,0.325261,-0.180448
2.834,0.003139,0.354767,-0.17646
2.854,0.008762,0.384681,-0.172802
2.874,0.009256,0.414789,-0.169854
2.894,0.003648,0.444425,-0.167302
2.914,-0.004261,0.47337,-0.164721
2.934,-0.011768,0.501384,-0.162215
2.954,-0.016992,0.528635,-0.160048
2.974,-0.020176,0.555554,-0.158568
2.994,-0.02284,0.582225,-0.157648
3.014,-0.025177,0.60813,-0.156982
3.034,-0.026561,0.632971,-0.156564
3.054,-0.0274,0.65642,-0.15639
3.074,-0.028292,0.67865,-0.156286
3.094,-0.029199,0.699322,-0.156013
3.114,-0.030126,0.717961,-0.155454
3.134,-0.031576,0.735062,-0.154737
3.154,-0.032854,0.751115,-0.153941
3.174,-0.031541,0.76677,-0.153139
3.194,-0.028219,0.782036,-0.152455
3.214,-0.025806,0.796496,-0.151855
3.234,-0.025887,0.809425,-0.151355
3.254,-0.027767,0.82033,-0.150954
3.274,-0.029552,0.829248,-0.150579
3.294,-0.031146,0.836352,-0.150298
3.314,-0.033338,0.841471,-0.150025
3.334,-0.036319,0.844586,-0.149789
3.354,-0.040183,0.84596,-0.149633
3.374,-0.044756,0.84569,-0.149703
3.394,-0.049065,0.84397,-0.149926
3.414,-0.052141,0.841101,-0.150058
3.434,-0.054496,0.837439,-0.150001
3.454,-0.057152,0.833135,-0.149861
3.474,-0.060062,0.828179,-0.149637
3.494,-0.062908,0.822458,-0.149329
3.514,-0.065329,0.815753,-0.148799
3.534,-0.06642,0.80827,-0.147814
3.554,-0.06717,0.799892,-0.146531
3.574,-0.068364,0.790722,-0.144943
3.594,-0.069609,0.780638,-0.143228
3.614,-0.070241,0.769323,-0.141383
3.634,-0.071628,0.75644,-0.13942
3.654,-0.075392,0.74201,-0.137171
3.674,-0.080776,0.726417,-0.134336
3.694,-0.087436,0.709501,-0.131342
3.714,-0.094348,0.69099,-0.128109
3.734,-0.100226,0.670784,-0.125266
3.754,-0.104762,0.650143,-0.122954
3.774,-0.109456,0.628987,-0.121011
3.794,-0.114169,0.607446,-0.119381
3.814,-0.118505,0.585959,-0.118006
3.834,-0.123104,0.564515,-0.116846
3.854,-0.127727,0.543141,-0.115659
3.874,-0.132019,0.521963,-0.114347
3.894,-0.135461,0.501304,-0.112924
3.914,-0.138575,0.481135,-0.11149
3.934,-0.141884,0.461388,-0.109887
3.954,-0.145505,0.441814,-0.108188
3.974,-0.149586,0.422323,-0.106567
3.994,-0.153604,0.402962,-0.105022
4.014,-0.157285,0.384025,-0.103627
4.034,-0.160367,0.365737,-0.102349
4.054,-0.162158,0.348419,-0.101207
4.074,-0.162524,0.332497,-0.100266
4.094,-0.161337,0.317806,-0.099412
4.114,-0.158629,0.304321,-0.09843
4.134,-0.156287,0.291516,-0.097521
4.154,-0.154613,0.278817,-0.096873
4.174,-0.153445,0.265695,-0.096496
4.194,-0.152293,0.251822,-0.096433
4.214,-0.151061,0.23706,-0.096689
4.234,-0.149981,0.221544,-0.097188
4.254,-0.148563,0.205453,-0.097808
4.274,-0.146571,0.188828,-0.098399
4.294,-0.143751,0.171667,-0.09889
4.314,-0.140147,0.154084,-0.099275
4.334,-0.136119,0.136143,-0.099471
4.354,-0.132222,0.117593,-0.099562
4.374,-0.128063,0.098444,-0.099461
4.394,-0.123217,0.078788,-0.09915
4.414,-0.118802,0.059038,-0.098972
4.434,-0.114536,0.039472,-0.098916
4.454,-0.109915,0.019959,-0.098839
4.474,-0.105747,0.000222,-0.098625
4.494,-0.101992,-0.019634,-0.098378
4.514,-0.098454,-0.039175,-0.098374
4.534,-0.095145,-0.058105,-0.098558
4.554,-0.091794,-0.076253,-0.098848
4.574,-0.088168,-0.093316,-0.099193
4.594,-0.084107,-0.109116,-0.099336
4.614,-0.080094,-0.123511,-0.099478
4.634,-0.076857,-0.137352,-0.099726
4.654,-0.07465,-0.151146,-0.099991
4.674,-0.072436,-0.165008,-0.100152
4.694,-0.070106,-0.178551,-0.10023
4.714,-0.06778,-0.191754,-0.100319
4.734,-0.065247,-0.204707,-0.100358
4.754,-0.062518,-0.217596,-0.100381
4.774,-0.059827,-0.230612,-0.100269
4.905,-0.056974,-0.245503,-0.099834
4.925,-0.054283,-0.260249,-0.099471
4.945,-0.051537,-0.274799,-0.099148
4.965,-0.048505,-0.289085,-0.098872
4.985,-0.045406,-0.303076,-0.09865
5.005,-0.042298,-0.316815,-0.098582
5.025,-0.039141,-0.33052,-0.098672
5.045,-0.035874,-0.344345,-0.098827
5.065,-0.03241,-0.358296,-0.098825
5.085,-0.028646,-0.372325,-0.098607
5.105,-0.024589,-0.3866,-0.098192
5.125,-0.020149,-0.401379,-0.097693
5.145,-0.015366,-0.416764,-0.097153
5.165,-0.010575,-0.433025,-0.096664
5.185,-0.005899,-0.450215,-0.096226
5.205,-0.000803,-0.468033,-0.095677
5.225,0.003769,-0.486072,-0.094876
5.245,0.007115,-0.504079,-0.093856
5.265,0.009439,-0.521992,-0.092627
5.285,0.011425,-0.539886,-0.091183
5.305,0.013909,-0.557918,-0.089373
5.325,0.017026,-0.575906,-0.08711
5.345,0.020103,-0.593965,-0.084363
5.365,0.022864,-0.612494,-0.081152
5.385,0.025279,-0.631541,-0.07758
5.405,0.027023,-0.65068,-0.073501
5.425,0.027929,-0.669097,-0.069102
5.445,0.028194,-0.686074,-0.064482
5.465,0.02818,-0.701135,-0.059566
5.485,0.027852,-0.714174,-0.054472
5.505,0.027247,-0.725089,-0.049454
5.525,0.026315,-0.733565,-0.044734
5.545,0.025741,-0.739501,-0.040391
5.565,0.026298,-0.742834,-0.036445
5.585,0.028241,-0.743742,-0.032909
5.605,0.030807,-0.742397,-0.029889
5.625,0.033959,-0.738999,-0.027473
5.645,0.037661,-0.733815,-0.025529
5.665,0.041631,-0.727069,-0.023897
5.685,0.045148,-0.718935,-0.022477
5.705,0.048194,-0.709434,-0.021097
5.725,0.050579,-0.698653,-0.019801
5.745,0.051847,-0.687303,-0.018833
5.765,0.051335,-0.67582,-0.018097
5.785,0.048298,-0.663851,-0.017379
5.805,0.043682,-0.650551,-0.016376
5.825,0.03831,-0.636239,-0.015182
5.845,0.029832,-0.62041,-0.014854
5.865,0.022229,-0.602766,-0.014475
5.885,0.018614,-0.582157,-0.013898
5.905,0.019468,-0.558625,-0.011981
5.925,0.021341,-0.535265,-0.01158
5.945,0.023323,-0.510813,-0.011876
5.965,0.026151,-0.48495,-0.012498
5.985,0.028866,-0.457585,-0.01344
6.005,0.030953,-0.428882,-0.014822
6.025,0.032233,-0.398814,-0.016258
6.045,0.032697,-0.367413,-0.018551
6.065,0.029838,-0.336941,-0.019754
6.085,0.026702,-0.305232,-0.021344
6.105,0.025993,-0.273133,-0.022041
6.125,0.025107,-0.241176,-0.022588
6.145,0.02392,-0.208864,-0.022719
6.165,0.022706,-0.175844,-0.022468
6.185,0.021385,-0.143975,-0.022042
6.205,0.019005,-0.113316,-0.021646
6.225,0.01509,-0.083042,-0.021175
6.245,0.010265,-0.052638,-0.020735
6.265,0.00466,-0.022419,-0.020155
6.285,-0.000982,0.008757,-0.019255
6.305,-0.006763,0.040729,-0.01777
6.325,-0.011799,0.074335,-0.015839
6.345,-0.013325,0.108841,-0.014336
6.365,-0.015654,0.142369,-0.012159
6.385,-0.01823,0.175883,-0.009811
6.405,-0.020645,0.209416,-0.007763
6.425,-0.024381,0.243801,-0.006078
6.445,-0.028346,0.279481,-0.004359
6.465,-0.033137,0.316173,-0.00313
6.485,-0.036469,0.352771,-0.001367
6.505,-0.04088,0.389427,0.000303
6.525,-0.044894,0.42686,0.002033
6.545,-0.048667,0.464439,0.003748
6.565,-0.053193,0.501279,0.005593
6.585,-0.058134,0.536829,0.007511
6.605,-0.062685,0.571192,0.00938
6.625,-0.067319,0.603107,0.011135
6.645,-0.071698,0.632902,0.013011
6.665,-0.074057,0.661218,0.015252
6.685,-0.076325,0.687637,0.017129
6.705,-0.078204,0.712547,0.019266
6.725,-0.079755,0.736066,0.021214
6.745,-0.080825,0.758251,0.02287
6.765,-0.081093,0.779386,0.023969
6.785,-0.08112,0.799256,0.024502
6.805,-0.081574,0.81694,0.024916
6.825,-0.083345,0.832363,0.025365
6.845,-0.085143,0.846215,0.025795
6.865,-0.086622,0.85935,0.025875
6.885,-0.087922,0.871593,0.02602
