gyro_time_list,gyro_x_list,gyro_y_list,gyro_z_list
0.020000,0.194000,-0.099000,0.321000
0.040000,0.292000,-0.069000,0.344000
0.060000,0.421000,-0.042000,0.433000
0.080000,0.502000,-0.021000,0.564000
0.100000,0.525000,0.038000,0.665000
0.120000,0.500000,0.115000,0.771000
0.140000,0.432000,0.182000,0.876000
0.160000,0.331000,0.238000,0.974000
0.180000,0.236000,0.290000,1.075000
0.200000,0.193000,0.334000,1.171000
0.220000,0.208000,0.373000,1.261000
0.240000,0.254000,0.410000,1.350000
0.260000,0.283000,0.449000,1.425000
0.280000,0.266000,0.484000,1.481000
0.300000,0.216000,0.512000,1.524000
0.320000,0.161000,0.535000,1.557000
0.340000,0.089000,0.555000,1.578000
0.360000,-0.004000,0.570000,1.591000
0.380000,-0.082000,0.577000,1.600000
0.400000,-0.129000,0.581000,1.608000
0.420000,-0.158000,0.587000,1.612000
0.440000,-0.187000,0.590000,1.612000
0.460000,-0.214000,0.591000,1.609000
0.480000,-0.234000,0.592000,1.603000
0.500000,-0.257000,0.592000,1.594000
0.520000,-0.283000,0.589000,1.582000
0.540000,-0.303000,0.584000,1.569000
0.560000,-0.315000,0.579000,1.554000
0.580000,-0.329000,0.575000,1.538000
0.600000,-0.347000,0.570000,1.520000
0.620000,-0.359000,0.562000,1.502000
0.640000,-0.361000,0.555000,1.484000
0.660000,-0.359000,0.549000,1.468000
0.680000,-0.358000,0.542000,1.451000
0.700000,-0.363000,0.534000,1.433000
0.720000,-0.368000,0.526000,1.414000
0.740000,-0.372000,0.517000,1.394000
0.760000,-0.374000,0.509000,1.375000
0.780000,-0.378000,0.498000,1.357000
0.800000,-0.383000,0.486000,1.338000
0.820000,-0.389000,0.473000,1.319000
0.840000,-0.394000,0.460000,1.299000
0.860000,-0.397000,0.447000,1.279000
0.880000,-0.400000,0.432000,1.258000
0.900000,-0.402000,0.416000,1.235000
0.920000,-0.404000,0.400000,1.210000
0.940000,-0.404000,0.383000,1.183000
0.960000,-0.403000,0.363000,1.154000
0.980000,-0.400000,0.341000,1.125000
1.000000,-0.396000,0.319000,1.094000
1.020000,-0.391000,0.297000,1.063000
1.040000,-0.387000,0.273000,1.031000
1.060000,-0.384000,0.247000,0.999000
1.080000,-0.383000,0.217000,0.967000
1.100000,-0.382000,0.187000,0.933000
1.120000,-0.380000,0.158000,0.899000
1.140000,-0.383000,0.134000,0.865000
1.160000,-0.395000,0.112000,0.828000
1.180000,-0.418000,0.085000,0.787000
1.200000,-0.444000,0.057000,0.744000
1.220000,-0.467000,0.040000,0.703000
1.240000,-0.484000,0.028000,0.664000
1.260000,-0.493000,0.003000,0.612000
1.280000,-0.473000,-0.026000,0.555000
1.300000,-0.423000,0.008000,0.522000
1.320000,-0.401000,0.126000,0.533000
1.340000,-0.460000,0.257000,0.571000
1.360000,-0.530000,0.097000,0.439000
1.380000,-0.613000,-0.078000,0.368000
1.400000,-0.486000,-0.266000,0.202000
1.420000,-0.329000,-0.455000,0.010000
1.440000,-0.164000,-0.510000,-0.067000
1.460000,-0.150000,-0.526000,-0.169000
1.480000,-0.243000,-0.520000,-0.253000
1.500000,-0.375000,-0.599000,-0.181000
1.520000,-0.456000,-0.701000,-0.095000
1.540000,-0.510000,-0.722000,-0.027000
1.560000,-0.489000,-0.643000,0.014000
1.580000,-0.351000,-0.476000,-0.020000
1.600000,-0.161000,-0.333000,-0.067000
1.620000,-0.031000,-0.253000,-0.073000
1.640000,-0.034000,-0.217000,-0.067000
1.660000,-0.083000,-0.196000,-0.066000
1.680000,-0.105000,-0.151000,-0.054000
1.700000,-0.108000,-0.067000,-0.043000
1.720000,-0.130000,0.036000,-0.030000
1.740000,-0.179000,0.133000,-0.012000
1.760000,-0.214000,0.217000,0.002000
1.780000,-0.198000,0.304000,0.022000
1.800000,-0.141000,0.409000,0.046000
1.820000,-0.089000,0.517000,0.067000
1.840000,-0.064000,0.621000,0.087000
1.860000,-0.060000,0.718000,0.108000
1.880000,-0.062000,0.805000,0.137000
1.900000,-0.091000,0.842000,0.172000
1.920000,-0.152000,0.765000,0.164000
1.940000,-0.201000,0.646000,0.121000
1.960000,-0.165000,0.572000,0.115000
1.980000,-0.095000,0.529000,0.111000
2.000000,-0.039000,0.489000,0.123000
2.020000,-0.046000,0.453000,0.130000
2.040000,-0.088000,0.427000,0.140000
2.060000,-0.121000,0.414000,0.153000
2.080000,-0.134000,0.415000,0.166000
2.100000,-0.156000,0.417000,0.177000
2.120000,-0.219000,0.395000,0.170000
2.140000,-0.293000,0.351000,0.152000
2.160000,-0.291000,0.321000,0.141000
2.180000,-0.230000,0.309000,0.135000
2.200000,-0.174000,0.300000,0.132000
2.220000,-0.161000,0.291000,0.127000
2.240000,-0.182000,0.282000,0.121000
2.260000,-0.197000,0.275000,0.117000
2.280000,-0.196000,0.266000,0.116000
2.300000,-0.194000,0.255000,0.113000
2.320000,-0.196000,0.246000,0.110000
2.340000,-0.199000,0.239000,0.109000
2.360000,-0.199000,0.233000,0.108000
2.380000,-0.198000,0.228000,0.108000
2.400000,-0.197000,0.223000,0.107000
2.420000,-0.197000,0.221000,0.106000
2.440000,-0.195000,0.221000,0.106000
2.460000,-0.195000,0.222000,0.108000
2.480000,-0.201000,0.223000,0.109000
2.500000,-0.208000,0.226000,0.111000
2.520000,-0.213000,0.231000,0.112000
2.540000,-0.215000,0.237000,0.115000
2.560000,-0.211000,0.244000,0.118000
2.580000,-0.201000,0.251000,0.121000
2.600000,-0.186000,0.259000,0.124000
2.620000,-0.171000,0.268000,0.126000
2.640000,-0.157000,0.278000,0.129000
2.660000,-0.144000,0.287000,0.131000
2.680000,-0.132000,0.297000,0.132000
2.700000,-0.123000,0.306000,0.133000
2.720000,-0.118000,0.315000,0.133000
2.740000,-0.117000,0.322000,0.133000
2.760000,-0.120000,0.328000,0.133000
2.780000,-0.122000,0.333000,0.132000
2.800000,-0.123000,0.337000,0.131000
2.820000,-0.121000,0.339000,0.130000
2.840000,-0.118000,0.342000,0.129000
2.860000,-0.116000,0.344000,0.129000
2.880000,-0.114000,0.345000,0.128000
2.900000,-0.112000,0.346000,0.127000
2.920000,-0.111000,0.347000,0.125000
2.940000,-0.112000,0.347000,0.124000
2.960000,-0.113000,0.348000,0.122000
2.980000,-0.113000,0.348000,0.121000
3.000000,-0.114000,0.348000,0.119000
3.020000,-0.117000,0.348000,0.117000
3.040000,-0.117000,0.347000,0.116000
3.060000,-0.116000,0.347000,0.114000
3.080000,-0.115000,0.346000,0.113000
3.100000,-0.116000,0.346000,0.112000
3.120000,-0.116000,0.347000,0.110000
3.140000,-0.116000,0.346000,0.109000
3.160000,-0.115000,0.346000,0.107000
3.180000,-0.115000,0.346000,0.106000
3.200000,-0.114000,0.346000,0.105000
3.220000,-0.114000,0.346000,0.104000
3.240000,-0.113000,0.346000,0.102000
3.260000,-0.111000,0.346000,0.101000
3.280000,-0.108000,0.346000,0.100000
3.300000,-0.105000,0.346000,0.099000
3.320000,-0.105000,0.346000,0.098000
3.340000,-0.104000,0.347000,0.097000
3.360000,-0.102000,0.348000,0.096000
3.380000,-0.100000,0.349000,0.095000
3.400000,-0.098000,0.350000,0.095000
3.420000,-0.096000,0.351000,0.094000
3.440000,-0.093000,0.351000,0.094000
3.460000,-0.090000,0.352000,0.093000
3.480000,-0.085000,0.352000,0.093000
3.500000,-0.079000,0.352000,0.092000
3.520000,-0.074000,0.351000,0.091000
3.540000,-0.070000,0.351000,0.090000
3.560000,-0.065000,0.351000,0.089000
3.580000,-0.059000,0.350000,0.088000
3.600000,-0.055000,0.349000,0.086000
3.620000,-0.052000,0.348000,0.084000
3.640000,-0.049000,0.347000,0.083000
3.660000,-0.046000,0.346000,0.081000
3.680000,-0.043000,0.345000,0.080000
3.700000,-0.041000,0.344000,0.079000
3.720000,-0.037000,0.343000,0.078000
3.740000,-0.035000,0.341000,0.078000
3.760000,-0.033000,0.340000,0.077000
3.780000,-0.033000,0.338000,0.076000
3.800000,-0.032000,0.336000,0.076000
3.820000,-0.031000,0.333000,0.075000
3.840000,-0.030000,0.330000,0.074000
3.860000,-0.029000,0.327000,0.073000
3.880000,-0.027000,0.323000,0.071000
3.900000,-0.026000,0.319000,0.070000
3.920000,-0.025000,0.315000,0.068000
3.940000,-0.022000,0.310000,0.066000
3.960000,-0.020000,0.304000,0.064000
3.980000,-0.018000,0.299000,0.061000
4.000000,-0.016000,0.293000,0.059000
4.020000,-0.013000,0.288000,0.056000
4.040000,-0.009000,0.281000,0.054000
4.060000,-0.006000,0.274000,0.051000
4.080000,-0.004000,0.266000,0.047000
4.100000,-0.003000,0.258000,0.043000
4.120000,-0.001000,0.249000,0.039000
4.140000,0.001000,0.238000,0.035000
4.160000,0.003000,0.226000,0.030000
4.180000,0.006000,0.213000,0.025000
4.200000,0.011000,0.199000,0.020000
4.220000,0.016000,0.184000,0.014000
4.240000,0.019000,0.168000,0.007000
4.260000,0.021000,0.151000,0.000000
4.280000,0.025000,0.135000,-0.008000
4.300000,0.030000,0.118000,-0.016000
4.320000,0.036000,0.100000,-0.025000
4.340000,0.040000,0.082000,-0.034000
4.360000,0.042000,0.065000,-0.044000
4.380000,0.042000,0.047000,-0.054000
4.400000,0.044000,0.031000,-0.066000
4.420000,0.048000,0.015000,-0.078000
4.440000,0.051000,0.001000,-0.091000
4.460000,0.051000,-0.012000,-0.106000
4.480000,0.048000,-0.025000,-0.123000
4.500000,0.043000,-0.036000,-0.142000
4.520000,0.038000,-0.043000,-0.162000
4.540000,0.031000,-0.047000,-0.183000
4.560000,0.024000,-0.048000,-0.205000
4.580000,0.018000,-0.047000,-0.228000
4.600000,0.015000,-0.045000,-0.250000
4.620000,0.012000,-0.042000,-0.272000
4.640000,0.009000,-0.039000,-0.294000
4.660000,0.006000,-0.036000,-0.316000
4.680000,0.005000,-0.034000,-0.335000
4.700000,0.006000,-0.031000,-0.351000
4.720000,0.007000,-0.029000,-0.367000
4.740000,0.006000,-0.026000,-0.382000
4.760000,0.004000,-0.025000,-0.396000
4.780000,0.001000,-0.024000,-0.409000
4.800000,-0.002000,-0.023000,-0.420000
4.820000,-0.005000,-0.021000,-0.430000
4.840000,-0.008000,-0.018000,-0.439000
4.860000,-0.011000,-0.016000,-0.446000
4.880000,-0.015000,-0.014000,-0.451000
4.900000,-0.019000,-0.012000,-0.456000
4.920000,-0.022000,-0.010000,-0.458000
4.940000,-0.026000,-0.007000,-0.460000
4.960000,-0.031000,-0.005000,-0.461000
4.980000,-0.035000,-0.003000,-0.462000
5.000000,-0.038000,-0.001000,-0.461000
5.020000,-0.040000,0.001000,-0.460000
5.040000,-0.043000,0.002000,-0.458000
5.060000,-0.044000,0.003000,-0.456000
5.080000,-0.045000,0.004000,-0.452000
5.100000,-0.047000,0.004000,-0.449000
5.120000,-0.050000,0.004000,-0.447000
5.140000,-0.052000,0.004000,-0.444000
5.160000,-0.053000,0.004000,-0.440000
5.180000,-0.054000,0.004000,-0.436000
5.200000,-0.055000,0.005000,-0.433000
5.220000,-0.055000,0.006000,-0.430000
5.240000,-0.054000,0.007000,-0.427000
5.260000,-0.053000,0.007000,-0.425000
5.280000,-0.053000,0.007000,-0.423000
5.300000,-0.052000,0.007000,-0.422000
5.320000,-0.050000,0.007000,-0.420000
5.340000,-0.047000,0.007000,-0.420000
5.360000,-0.045000,0.005000,-0.420000
5.380000,-0.040000,0.004000,-0.420000
5.400000,-0.035000,0.001000,-0.419000
5.420000,-0.029000,-0.002000,-0.419000
5.440000,-0.023000,-0.005000,-0.419000
5.460000,-0.016000,-0.009000,-0.420000
5.480000,-0.008000,-0.012000,-0.419000
5.500000,0.001000,-0.016000,-0.418000
5.520000,0.010000,-0.020000,-0.417000
5.540000,0.021000,-0.025000,-0.416000
5.560000,0.032000,-0.029000,-0.415000
5.580000,0.045000,-0.033000,-0.412000
5.600000,0.058000,-0.038000,-0.410000
5.620000,0.071000,-0.042000,-0.408000
5.640000,0.082000,-0.045000,-0.406000
5.660000,0.090000,-0.049000,-0.405000
5.680000,0.096000,-0.053000,-0.405000
5.700000,0.102000,-0.057000,-0.404000
5.720000,0.108000,-0.060000,-0.402000
5.740000,0.113000,-0.063000,-0.400000
5.760000,0.117000,-0.065000,-0.398000
5.780000,0.119000,-0.067000,-0.395000
5.800000,0.120000,-0.067000,-0.393000
5.820000,0.121000,-0.067000,-0.391000
5.840000,0.122000,-0.066000,-0.388000
5.860000,0.123000,-0.065000,-0.385000
5.880000,0.123000,-0.062000,-0.382000
5.900000,0.122000,-0.059000,-0.380000
5.920000,0.121000,-0.055000,-0.379000
5.940000,0.120000,-0.050000,-0.377000
5.960000,0.118000,-0.045000,-0.375000
5.980000,0.117000,-0.040000,-0.372000
6.000000,0.115000,-0.034000,-0.369000
