accel_time_list,accel_x_list,accel_y_list,accel_z_list
0.310000,-5.449203,-3.466804,11.640609
0.330000,-5.631163,-3.557784,11.625046
0.350000,-5.770369,-3.647277,11.707664
0.370000,-5.875557,-3.596622,11.805422
0.390000,-5.904464,-3.547479,11.782405
0.410000,-5.851340,-3.605372,11.691284
0.430000,-5.759889,-3.706395,11.576300
0.450000,-5.645585,-3.758522,11.474474
0.470000,-5.527469,-3.773420,11.348553
0.490000,-5.427319,-3.790901,11.221354
0.510000,-5.333152,-3.776457,11.088181
0.530000,-5.225743,-3.702443,10.959718
0.550000,-5.104785,-3.590856,10.842354
0.570000,-4.998219,-3.471539,10.732305
0.590000,-4.912273,-3.365984,10.613936
0.610000,-4.824788,-3.266965,10.499155
0.630000,-4.730660,-3.163995,10.396584
0.650000,-4.647529,-3.080445,10.301248
0.670000,-4.569476,-3.022123,10.202530
0.690000,-4.486516,-2.956179,10.106292
0.710000,-4.407751,-2.869946,10.011329
0.730000,-4.332001,-2.767597,9.916869
0.750000,-4.251326,-2.660787,9.830215
0.770000,-4.169705,-2.563388,9.744468
0.790000,-4.093201,-2.479194,9.656222
0.810000,-4.022605,-2.411461,9.561560
0.830000,-3.946214,-2.361609,9.460742
0.850000,-3.858612,-2.323938,9.358116
0.870000,-3.765712,-2.287780,9.252316
0.890000,-3.682528,-2.252293,9.142783
0.910000,-3.610986,-2.218331,9.028463
0.930000,-3.538774,-2.188016,8.912844
0.950000,-3.454660,-2.157574,8.789042
0.970000,-3.353827,-2.123484,8.653925
0.990000,-3.236011,-2.079402,8.501692
1.010000,-3.096655,-2.025891,8.326168
1.030000,-2.943394,-1.973898,8.133739
1.050000,-2.781446,-1.914535,7.930989
1.070000,-2.621040,-1.818905,7.701945
1.090000,-2.466333,-1.677553,7.440162
1.110000,-2.333069,-1.543845,7.167817
1.130000,-2.240602,-1.463316,6.881392
1.150000,-2.226504,-1.427041,6.566050
1.170000,-2.283914,-1.390545,6.218441
1.190000,-2.398981,-1.344636,5.856628
1.210000,-2.567164,-1.326599,5.470851
1.230000,-2.783242,-1.352648,5.077521
1.250000,-3.063947,-1.442218,4.804294
1.270000,-3.371498,-1.660445,4.693166
1.290000,-3.397787,-1.977616,4.482175
1.310000,-3.039496,-2.139644,4.056308
1.330000,-3.260684,-2.171124,4.208535
1.350000,-4.242682,-2.231206,5.429549
1.370000,-4.981964,-4.138134,10.901304
1.390000,-2.410703,-6.271384,1.134073
1.410000,7.604377,-4.173344,-9.534139
1.430000,3.007217,-0.309047,-3.852201
1.450000,-6.567659,1.486389,-1.277635
1.470000,-14.420280,0.340075,-3.300176
1.490000,-11.250956,-0.589061,-5.202798
1.510000,-3.267640,-1.459450,-5.011384
1.530000,6.986664,-2.674567,-3.648716
1.550000,5.930287,-2.526151,-3.535040
1.570000,2.408472,-1.281073,-3.579122
1.590000,2.375515,0.261921,-3.109457
1.610000,4.059440,0.858047,-2.405953
1.630000,4.589740,0.826844,-1.746379
1.650000,3.832336,0.904423,0.137989
1.670000,2.203913,2.363417,9.802317
1.690000,0.167521,3.124966,14.715280
1.710000,-0.727700,3.613320,12.319499
1.730000,-0.720300,3.607693,9.802118
1.750000,-0.628664,2.993733,7.905748
1.770000,-0.464459,2.168484,6.818349
1.790000,0.018635,1.733107,6.295750
1.810000,0.603159,1.671118,6.449609
1.830000,1.202130,1.813103,7.293326
1.850000,1.589390,1.940784,8.530492
1.870000,1.543888,1.848939,9.758688
1.890000,1.388018,1.677543,10.466673
1.910000,1.324443,1.373658,10.524220
1.930000,1.279590,0.937815,10.292183
1.950000,1.213764,0.551605,10.048698
1.970000,1.126742,0.301428,9.906222
1.990000,1.018460,0.135437,9.888603
2.010000,0.901541,-0.013064,9.946674
2.030000,0.797441,-0.190950,10.016582
2.050000,0.752679,-0.354174,10.066086
2.070000,0.742404,-0.470815,10.108195
2.090000,0.730160,-0.552454,10.155426
2.110000,0.727440,-0.629548,10.197328
2.130000,0.751082,-0.707727,10.228433
2.150000,0.778310,-0.776521,10.262762
2.170000,0.776493,-0.828107,10.307074
2.190000,0.762184,-0.866187,10.350484
2.210000,0.749590,-0.894149,10.386167
2.230000,0.743382,-0.918755,10.411659
2.250000,0.737267,-0.949289,10.425828
2.270000,0.730480,-0.984215,10.434562
2.290000,0.725277,-1.013390,10.443380
2.332000,0.725126,-1.037702,10.456537
2.352000,0.730312,-1.061270,10.469917
2.372000,0.735630,-1.082553,10.484974
2.392000,0.736761,-1.100683,10.497695
2.412000,0.736013,-1.115771,10.507239
2.432000,0.736188,-1.132125,10.513342
2.452000,0.739188,-1.153363,10.514782
2.472000,0.740875,-1.179127,10.512649
2.492000,0.742474,-1.210498,10.510571
2.512000,0.749058,-1.245168,10.507843
2.532000,0.757061,-1.282979,10.508464
2.552000,0.763881,-1.323798,10.512027
2.572000,0.769137,-1.361691,10.518496
2.592000,0.773375,-1.391981,10.525708
2.612000,0.775784,-1.413450,10.530481
2.632000,0.776318,-1.428580,10.533943
2.652000,0.774837,-1.440472,10.536009
2.672000,0.773675,-1.450134,10.539581
2.692000,0.771807,-1.457893,10.544841
2.712000,0.769915,-1.464641,10.552066
2.732000,0.768243,-1.471950,10.559849
2.752000,0.768676,-1.479785,10.567685
2.772000,0.771930,-1.486893,10.574069
2.792000,0.776574,-1.490812,10.578775
2.812000,0.782628,-1.490936,10.582996
2.832000,0.788655,-1.489020,10.586514
2.852000,0.793523,-1.486928,10.589029
2.872000,0.796768,-1.486174,10.591023
2.892000,0.798341,-1.488493,10.593777
2.912000,0.798364,-1.493997,10.598251
2.932000,0.797405,-1.501191,10.604361
2.952000,0.796599,-1.506688,10.610927
2.972000,0.796175,-1.509561,10.616973
2.992000,0.797944,-1.511699,10.620895
3.012000,0.801537,-1.513673,10.623212
3.032000,0.805328,-1.515837,10.624331
3.052000,0.809158,-1.519724,10.625248
3.072000,0.812512,-1.524660,10.625895
3.092000,0.814353,-1.530436,10.627231
3.112000,0.815567,-1.537015,10.628991
3.132000,0.816251,-1.544488,10.631502
3.152000,0.816777,-1.552264,10.633258
3.172000,0.817081,-1.559624,10.634701
3.192000,0.817580,-1.564945,10.636248
3.212000,0.819001,-1.567805,10.637749
3.232000,0.820319,-1.569215,10.639777
3.252000,0.821374,-1.569984,10.641714
3.272000,0.822626,-1.571870,10.643632
3.292000,0.823561,-1.575081,10.645429
3.312000,0.825287,-1.578418,10.647651
3.332000,0.827033,-1.580071,10.650917
3.352000,0.827541,-1.580247,10.653903
3.372000,0.827734,-1.581347,10.655768
3.392000,0.828759,-1.584928,10.656296
3.412000,0.830114,-1.589391,10.656332
3.432000,0.831643,-1.592583,10.657530
3.452000,0.833079,-1.594382,10.659287
3.472000,0.834338,-1.595065,10.661893
3.492000,0.835457,-1.595122,10.664286
3.512000,0.836270,-1.596251,10.665451
3.532000,0.837840,-1.599815,10.665222
3.552000,0.840830,-1.605861,10.663004
3.572000,0.844275,-1.611229,10.658658
3.592000,0.844069,-1.615815,10.654977
3.612000,0.841949,-1.620122,10.653997
3.632000,0.841536,-1.622249,10.655834
3.652000,0.840739,-1.619399,10.659978
3.672000,0.837838,-1.612201,10.664484
3.692000,0.833040,-1.605192,10.672919
3.712000,0.832251,-1.597503,10.680376
3.732000,0.836782,-1.585500,10.683977
3.752000,0.838400,-1.570736,10.684128
3.772000,0.833769,-1.561413,10.682884
3.792000,0.831512,-1.562008,10.681534
3.812000,0.832658,-1.566403,10.679136
3.832000,0.829406,-1.568946,10.677852
3.852000,0.820680,-1.569548,10.682721
3.872000,0.813764,-1.572497,10.692703
3.892000,0.811266,-1.579279,10.698913
3.912000,0.810336,-1.586625,10.700473
3.932000,0.810205,-1.589381,10.700010
3.952000,0.809932,-1.589278,10.699308
3.972000,0.809183,-1.591080,10.700128
3.992000,0.810644,-1.594442,10.702694
4.012000,0.814628,-1.594573,10.707280
4.032000,0.818022,-1.592697,10.713148
4.052000,0.815349,-1.587674,10.717970
4.072000,0.806166,-1.584633,10.719463
4.092000,0.801288,-1.589159,10.715674
4.112000,0.801799,-1.591487,10.709792
4.132000,0.802041,-1.575146,10.707704
4.152000,0.801562,-1.541519,10.708438
4.172000,0.802237,-1.510894,10.704519
4.192000,0.806497,-1.493903,10.694846
4.212000,0.816245,-1.485966,10.686539
4.232000,0.824698,-1.485635,10.682695
4.252000,0.829332,-1.492515,10.686576
4.272000,0.832316,-1.491834,10.704137
4.292000,0.832516,-1.478496,10.728298
4.312000,0.832570,-1.469981,10.742737
4.344000,0.841076,-1.474963,10.736465
4.364000,0.848539,-1.477983,10.729585
4.384000,0.848265,-1.480067,10.725216
4.404000,0.846343,-1.483310,10.723022
4.424000,0.845230,-1.495427,10.729085
4.444000,0.835676,-1.521010,10.743228
4.464000,0.828420,-1.542229,10.751555
4.484000,0.837518,-1.554696,10.749743
4.504000,0.849829,-1.566076,10.754223
4.524000,0.844922,-1.575085,10.779965
4.544000,0.840495,-1.576622,10.803895
4.564000,0.846814,-1.579470,10.822845
4.584000,0.851897,-1.595454,10.840671
4.604000,0.851160,-1.612675,10.861938
4.624000,0.854260,-1.622072,10.873544
4.644000,0.870952,-1.634683,10.875042
4.664000,0.896408,-1.650618,10.871188
4.684000,0.917180,-1.663934,10.862827
4.704000,0.930130,-1.674217,10.852954
4.724000,0.940725,-1.677361,10.840968
4.744000,0.953536,-1.670176,10.825629
4.764000,0.968804,-1.655342,10.808147
4.784000,0.983178,-1.645360,10.794068
4.804000,0.989579,-1.664594,10.780073
4.824000,0.997783,-1.700588,10.761827
4.844000,1.015578,-1.726487,10.741474
4.864000,1.029005,-1.737797,10.725435
4.884000,1.032602,-1.733445,10.712076
4.904000,1.034749,-1.713037,10.701862
4.924000,1.049517,-1.704164,10.692167
4.944000,1.053818,-1.710308,10.683318
4.964000,1.051444,-1.721366,10.676750
4.984000,1.047179,-1.735450,10.672591
5.004000,1.048678,-1.747523,10.672974
5.024000,1.049779,-1.758054,10.673224
5.044000,1.049097,-1.765509,10.672344
5.064000,1.049548,-1.774277,10.675944
5.084000,1.050760,-1.784981,10.683654
5.104000,1.049757,-1.790657,10.689297
5.124000,1.048238,-1.788328,10.691771
5.144000,1.049320,-1.783396,10.694963
5.164000,1.048643,-1.782135,10.697930
5.184000,1.048691,-1.780592,10.696798
5.204000,1.049121,-1.777180,10.692278
5.224000,1.050194,-1.772270,10.688880
5.244000,1.050418,-1.768340,10.686786
5.264000,1.048461,-1.769219,10.680882
5.284000,1.045686,-1.768949,10.675395
5.304000,1.041741,-1.766322,10.673819
5.324000,1.037357,-1.762509,10.676256
5.344000,1.034837,-1.756067,10.678382
5.364000,1.032317,-1.750621,10.678810
5.384000,1.024963,-1.752125,10.680408
5.404000,1.015192,-1.757995,10.684742
5.424000,1.007099,-1.754804,10.687860
5.444000,0.999494,-1.749155,10.687763
5.464000,0.989523,-1.745430,10.686638
5.484000,0.976300,-1.744568,10.686122
5.504000,0.962371,-1.745462,10.685276
5.524000,0.949994,-1.743139,10.683672
5.544000,0.933695,-1.740575,10.683425
5.564000,0.912530,-1.740839,10.685742
5.584000,0.889088,-1.745672,10.686744
5.604000,0.868010,-1.745550,10.686562
5.624000,0.851597,-1.741119,10.685760
5.644000,0.835587,-1.735870,10.686162
5.664000,0.818780,-1.733403,10.685196
5.684000,0.802907,-1.729573,10.684239
5.704000,0.785373,-1.725924,10.685351
5.724000,0.770719,-1.722024,10.686955
5.744000,0.755901,-1.717685,10.687274
5.764000,0.741543,-1.712742,10.686943
5.784000,0.725796,-1.709908,10.688052
5.804000,0.709799,-1.709497,10.689677
5.824000,0.694872,-1.708802,10.690424
5.844000,0.680477,-1.709072,10.690014
5.867000,0.663832,-1.710752,10.690183
5.887000,0.646444,-1.711194,10.690350
5.907000,0.631719,-1.711560,10.689031
5.927000,0.615945,-1.711299,10.688754
5.947000,0.599754,-1.710586,10.689893
5.967000,0.583701,-1.709091,10.689536
5.987000,0.568766,-1.707275,10.688201
6.007000,0.553860,-1.703250,10.687860
6.027000,0.538769,-1.699530,10.688123
6.047000,0.523900,-1.698168,10.687425
6.067000,0.509996,-1.696581,10.686565
6.087000,0.494890,-1.695537,10.687103
6.107000,0.479800,-1.693857,10.688067
6.127000,0.464901,-1.693199,10.687944
6.147000,0.449536,-1.692787,10.687033
6.167000,0.433158,-1.691445,10.687136
6.187000,0.416593,-1.690093,10.688075
6.207000,0.400441,-1.688874,10.688119
6.227000,0.384412,-1.688242,10.686152
6.247000,0.368411,-1.686778,10.684299
6.267000,0.351577,-1.686191,10.683711
6.287000,0.334920,-1.685586,10.683368
6.307000,0.318550,-1.684077,10.682214
6.327000,0.301778,-1.683014,10.681479
