gyro_time_list,gyro_x_list,gyro_y_list,gyro_z_list
0.310000,-0.520401,0.199580,2.799322
0.330000,-0.560104,0.153549,2.694002
0.350000,-0.539598,0.087900,2.598893
0.370000,-0.542868,0.010147,2.487721
0.390000,-0.600597,-0.070993,2.355336
0.410000,-0.653424,-0.150402,2.227768
0.430000,-0.660225,-0.224770,2.110418
0.450000,-0.641783,-0.291934,1.994230
0.470000,-0.619396,-0.351976,1.883158
0.490000,-0.582001,-0.405922,1.783571
0.510000,-0.521155,-0.455097,1.696100
0.530000,-0.453480,-0.499202,1.616538
0.550000,-0.398682,-0.536213,1.541080
0.570000,-0.361893,-0.566462,1.469718
0.590000,-0.336603,-0.592183,1.401862
0.610000,-0.318025,-0.613799,1.337584
0.630000,-0.308203,-0.630549,1.277637
0.650000,-0.301523,-0.644393,1.222118
0.670000,-0.287259,-0.656027,1.172118
0.690000,-0.264873,-0.664642,1.128395
0.710000,-0.242752,-0.669883,1.088372
0.730000,-0.228550,-0.672274,1.050760
0.750000,-0.226484,-0.672626,1.014273
0.770000,-0.236008,-0.671196,0.978618
0.790000,-0.252952,-0.668327,0.943616
0.810000,-0.273142,-0.665458,0.909956
0.830000,-0.292534,-0.663171,0.877955
0.850000,-0.307375,-0.660976,0.847651
0.870000,-0.316052,-0.658346,0.818685
0.890000,-0.320553,-0.655106,0.790780
0.910000,-0.322267,-0.653093,0.764033
0.930000,-0.321295,-0.653617,0.738480
0.950000,-0.318053,-0.656565,0.713296
0.970000,-0.313337,-0.661732,0.687322
0.990000,-0.306423,-0.668549,0.661473
1.010000,-0.296704,-0.676430,0.637614
1.030000,-0.284246,-0.683511,0.615444
1.050000,-0.270259,-0.688251,0.593328
1.070000,-0.259138,-0.690155,0.571872
1.090000,-0.259643,-0.688876,0.554218
1.110000,-0.278020,-0.683548,0.537325
1.130000,-0.309420,-0.673619,0.520802
1.150000,-0.342068,-0.658710,0.508088
1.170000,-0.373117,-0.640480,0.497475
1.190000,-0.407071,-0.621461,0.489591
1.210000,-0.446486,-0.600986,0.483901
1.230000,-0.486164,-0.576640,0.475382
1.250000,-0.513117,-0.547722,0.460939
1.270000,-0.530014,-0.525056,0.425669
1.290000,-0.518044,-0.505553,0.374297
1.310000,-0.441223,-0.443087,0.335682
1.330000,-0.369565,-0.312065,0.322883
1.350000,-0.368671,-0.165100,0.321412
1.370000,-0.493094,-0.315768,0.235053
1.390000,-0.627145,-0.477719,0.089423
1.410000,-0.436619,-0.496156,-0.071036
1.430000,-0.226403,-0.563084,-0.166997
1.450000,-0.200894,-0.618304,-0.135229
1.470000,-0.393019,-0.704267,-0.149473
1.490000,-0.596955,-0.793149,-0.179818
1.510000,-0.639170,-0.735878,-0.176720
1.530000,-0.475721,-0.578366,-0.168377
1.550000,-0.198840,-0.359983,-0.176367
1.570000,0.092494,-0.162023,-0.191869
1.590000,0.275413,-0.037980,-0.195421
1.610000,0.244042,0.106087,-0.191885
1.630000,0.216554,0.307208,-0.185453
1.650000,0.310078,0.554005,-0.178961
1.670000,0.476200,0.614910,-0.156601
1.690000,0.409055,0.557967,-0.135415
1.710000,0.238872,0.462488,-0.175286
1.730000,-0.015068,0.353747,-0.166831
1.750000,-0.253929,0.277215,-0.147089
1.770000,-0.387013,0.220475,-0.156172
1.790000,-0.386562,0.198908,-0.165343
1.810000,-0.300582,0.205258,-0.170200
1.830000,-0.184128,0.228737,-0.171272
1.850000,-0.115847,0.255755,-0.153904
1.870000,-0.159766,0.263541,-0.134576
1.890000,-0.282079,0.242242,-0.133012
1.910000,-0.429466,0.207807,-0.126307
1.930000,-0.531765,0.178506,-0.121293
1.950000,-0.555852,0.160537,-0.119637
1.970000,-0.530241,0.150699,-0.115250
1.990000,-0.498649,0.145333,-0.110447
2.010000,-0.481085,0.141837,-0.106999
2.030000,-0.470290,0.138082,-0.105462
2.050000,-0.452291,0.134888,-0.105167
2.070000,-0.427060,0.133255,-0.103936
2.090000,-0.403787,0.131499,-0.102442
2.110000,-0.385078,0.127889,-0.101218
2.130000,-0.367393,0.123479,-0.100333
2.150000,-0.347836,0.120469,-0.099503
2.170000,-0.328206,0.117801,-0.099433
2.190000,-0.310807,0.113793,-0.099827
2.210000,-0.296898,0.108757,-0.100534
2.230000,-0.287170,0.103511,-0.101530
2.250000,-0.279514,0.098701,-0.102692
2.270000,-0.270838,0.094341,-0.103546
2.290000,-0.260677,0.090406,-0.103936
2.332000,-0.253143,0.086319,-0.104179
2.352000,-0.246820,0.082386,-0.104416
2.372000,-0.241225,0.078762,-0.104317
2.392000,-0.236395,0.075302,-0.103846
2.412000,-0.233109,0.071707,-0.103079
2.432000,-0.231647,0.068481,-0.102096
2.452000,-0.230709,0.065928,-0.100508
2.472000,-0.230004,0.064167,-0.098469
2.492000,-0.230379,0.062629,-0.096231
2.512000,-0.230055,0.061353,-0.093720
2.532000,-0.228538,0.060443,-0.091698
2.552000,-0.224718,0.059754,-0.090022
2.572000,-0.218396,0.058977,-0.088501
2.592000,-0.210464,0.058240,-0.087083
2.612000,-0.202423,0.057680,-0.085935
2.632000,-0.195159,0.057319,-0.085172
2.652000,-0.188607,0.057119,-0.084525
2.672000,-0.182207,0.056954,-0.083765
2.692000,-0.175873,0.056810,-0.082821
2.712000,-0.170170,0.056642,-0.081710
2.732000,-0.165164,0.056325,-0.080621
2.752000,-0.160549,0.055786,-0.079676
2.772000,-0.155811,0.055082,-0.078903
2.792000,-0.150735,0.054335,-0.078279
2.812000,-0.145926,0.053577,-0.077624
2.832000,-0.142116,0.052899,-0.076927
2.852000,-0.139699,0.052374,-0.076237
2.872000,-0.138397,0.051953,-0.075523
2.892000,-0.137754,0.051583,-0.074801
2.912000,-0.137222,0.051213,-0.074126
2.932000,-0.136142,0.050747,-0.073462
2.952000,-0.134527,0.050133,-0.072829
2.972000,-0.132950,0.049352,-0.072274
2.992000,-0.131773,0.048453,-0.071712
3.012000,-0.130999,0.047589,-0.071134
3.032000,-0.130437,0.046822,-0.070476
3.052000,-0.129967,0.046168,-0.069762
3.072000,-0.129501,0.045620,-0.069046
3.092000,-0.128916,0.045145,-0.068293
3.112000,-0.128200,0.044742,-0.067527
3.132000,-0.127256,0.044361,-0.066761
3.152000,-0.125965,0.044021,-0.066107
3.172000,-0.124168,0.043715,-0.065565
3.192000,-0.121919,0.043449,-0.065095
3.212000,-0.119613,0.043219,-0.064629
3.232000,-0.117598,0.043019,-0.064114
3.252000,-0.116037,0.042861,-0.063570
3.272000,-0.114959,0.042762,-0.063027
3.292000,-0.113857,0.042631,-0.062623
3.312000,-0.112404,0.042488,-0.062296
3.332000,-0.110705,0.042411,-0.061954
3.352000,-0.109336,0.042310,-0.061538
3.372000,-0.108663,0.042068,-0.061025
3.392000,-0.108234,0.041801,-0.060539
3.412000,-0.107257,0.041654,-0.060163
3.432000,-0.105653,0.041607,-0.059841
3.452000,-0.103853,0.041575,-0.059529
3.472000,-0.102233,0.041497,-0.059247
3.492000,-0.101006,0.041410,-0.058965
3.512000,-0.100172,0.041307,-0.058687
3.532000,-0.099278,0.041303,-0.058476
3.552000,-0.097827,0.041500,-0.058442
3.572000,-0.095808,0.042209,-0.058523
3.592000,-0.093579,0.043373,-0.058714
3.612000,-0.090948,0.044560,-0.058985
3.632000,-0.087219,0.045623,-0.059295
3.652000,-0.082924,0.046698,-0.059432
3.672000,-0.079802,0.047748,-0.059294
3.692000,-0.077760,0.047950,-0.059011
3.712000,-0.075513,0.047419,-0.058687
3.732000,-0.073899,0.046927,-0.058339
3.752000,-0.074527,0.047257,-0.057779
3.772000,-0.077657,0.047832,-0.056970
3.792000,-0.080930,0.048084,-0.056232
3.812000,-0.082131,0.048677,-0.055540
3.832000,-0.081769,0.050119,-0.054396
3.852000,-0.081775,0.051335,-0.052929
3.872000,-0.083336,0.051613,-0.052012
3.892000,-0.085293,0.051372,-0.051963
3.912000,-0.085717,0.051095,-0.052007
3.932000,-0.084449,0.050773,-0.051823
3.952000,-0.082854,0.050184,-0.051686
3.972000,-0.081024,0.049030,-0.051862
3.992000,-0.078198,0.047398,-0.052389
4.012000,-0.074526,0.045498,-0.053181
4.032000,-0.071152,0.043069,-0.054567
4.052000,-0.068385,0.040083,-0.056467
4.072000,-0.066153,0.035863,-0.058605
4.092000,-0.062070,0.031644,-0.060373
4.112000,-0.054471,0.029192,-0.062047
4.132000,-0.045242,0.028245,-0.062998
4.152000,-0.039529,0.027303,-0.062454
4.172000,-0.040412,0.026793,-0.060007
4.192000,-0.045341,0.027383,-0.056926
4.212000,-0.051722,0.029132,-0.054786
4.232000,-0.057983,0.031802,-0.053486
4.252000,-0.062063,0.034619,-0.052532
4.272000,-0.063141,0.036638,-0.051328
4.292000,-0.065119,0.037015,-0.049134
4.312000,-0.071541,0.035627,-0.047175
4.344000,-0.077596,0.033900,-0.045797
4.364000,-0.081544,0.033190,-0.043422
4.384000,-0.085863,0.033437,-0.040767
4.404000,-0.092780,0.033950,-0.038707
4.424000,-0.101027,0.034198,-0.037491
4.444000,-0.106878,0.033800,-0.037042
4.464000,-0.110884,0.032151,-0.037669
4.484000,-0.113822,0.029748,-0.038526
4.504000,-0.115571,0.028194,-0.038822
4.524000,-0.115246,0.025751,-0.038837
4.544000,-0.114703,0.020815,-0.038236
4.564000,-0.116368,0.014726,-0.036574
4.584000,-0.118325,0.008630,-0.034514
4.604000,-0.118673,0.002366,-0.032257
4.624000,-0.119386,-0.004117,-0.030009
4.644000,-0.119862,-0.010191,-0.027635
4.664000,-0.118296,-0.014610,-0.026170
4.684000,-0.114124,-0.016973,-0.025347
4.704000,-0.108911,-0.017899,-0.025648
4.724000,-0.103826,-0.017995,-0.026917
4.744000,-0.100260,-0.017547,-0.029460
4.764000,-0.100894,-0.016411,-0.032960
4.784000,-0.108296,-0.014414,-0.037439
4.804000,-0.116869,-0.012632,-0.042696
4.824000,-0.118344,-0.011052,-0.047476
4.844000,-0.110432,-0.008281,-0.051201
4.864000,-0.098567,-0.004217,-0.054924
4.884000,-0.088104,0.000174,-0.059051
4.904000,-0.084372,0.003555,-0.063296
4.924000,-0.087361,0.007539,-0.067019
4.944000,-0.091483,0.012511,-0.071087
4.964000,-0.093910,0.017251,-0.075095
4.984000,-0.094355,0.020793,-0.077783
5.004000,-0.094352,0.024037,-0.080695
5.024000,-0.094640,0.027577,-0.083206
5.044000,-0.094403,0.031080,-0.085425
5.064000,-0.092641,0.034057,-0.088469
5.084000,-0.089330,0.036748,-0.091007
5.104000,-0.085363,0.039262,-0.091737
5.124000,-0.081721,0.041118,-0.091367
5.144000,-0.079486,0.042513,-0.090994
5.164000,-0.078206,0.044061,-0.090918
5.184000,-0.076587,0.045944,-0.090433
5.204000,-0.074255,0.048285,-0.090023
5.224000,-0.071685,0.051093,-0.089532
5.244000,-0.069845,0.054846,-0.088823
5.264000,-0.068192,0.059306,-0.087887
5.284000,-0.064897,0.064002,-0.088231
5.304000,-0.061219,0.068442,-0.088520
5.324000,-0.058446,0.072699,-0.088517
5.344000,-0.057795,0.076885,-0.088660
5.364000,-0.059021,0.081103,-0.088637
5.384000,-0.060182,0.084959,-0.089065
5.404000,-0.059535,0.088058,-0.089628
5.424000,-0.058265,0.090897,-0.090128
5.444000,-0.058130,0.093762,-0.090792
5.464000,-0.058439,0.096645,-0.091137
5.484000,-0.058790,0.099381,-0.090957
5.504000,-0.058230,0.101955,-0.090358
5.524000,-0.057276,0.104662,-0.089510
5.544000,-0.056578,0.107531,-0.088431
5.564000,-0.056470,0.110057,-0.087178
5.584000,-0.055578,0.112042,-0.085821
5.604000,-0.053568,0.113067,-0.084169
5.624000,-0.051952,0.113625,-0.082192
5.644000,-0.051711,0.114278,-0.080404
5.664000,-0.051980,0.114946,-0.079098
5.684000,-0.051574,0.115653,-0.077387
5.704000,-0.051368,0.115934,-0.075824
5.724000,-0.051473,0.116249,-0.074603
5.744000,-0.051836,0.116738,-0.073417
5.764000,-0.052434,0.117246,-0.072042
5.784000,-0.053513,0.117594,-0.070865
5.804000,-0.054646,0.117832,-0.069722
5.824000,-0.055621,0.118036,-0.068520
5.844000,-0.056457,0.118340,-0.067246
5.867000,-0.056909,0.118650,-0.066020
5.887000,-0.057372,0.118852,-0.064839
5.907000,-0.057790,0.118937,-0.063890
5.927000,-0.057641,0.118987,-0.063054
5.947000,-0.057164,0.118953,-0.062201
5.967000,-0.056716,0.118702,-0.061208
5.987000,-0.056236,0.118413,-0.060207
6.007000,-0.055916,0.118161,-0.059112
6.027000,-0.056341,0.117934,-0.058409
6.047000,-0.056796,0.117757,-0.057845
6.067000,-0.056749,0.117714,-0.057033
6.087000,-0.056638,0.117532,-0.056276
6.107000,-0.056962,0.117362,-0.055655
6.127000,-0.057533,0.117293,-0.055182
6.147000,-0.057774,0.117253,-0.054780
6.167000,-0.057665,0.117095,-0.054431
6.187000,-0.057675,0.116840,-0.054202
6.207000,-0.057863,0.116561,-0.054069
6.227000,-0.057832,0.116242,-0.053869
6.247000,-0.057665,0.115888,-0.053705
6.267000,-0.057543,0.115595,-0.053741
6.287000,-0.057393,0.115408,-0.053844
6.307000,-0.057089,0.115276,-0.053889
6.327000,-0.056889,0.115070,-0.053929
