accel_time_list,accel_x_list,accel_y_list,accel_z_list
0.015000,0.687500,0.780000,9.462500
0.035000,0.620000,0.787500,9.422500
0.055000,0.545000,0.652500,9.317500
0.075000,0.537500,0.562500,9.162500
0.095000,0.525000,0.560000,8.957500
0.115000,0.450000,0.495000,8.840000
0.135000,0.360000,0.452500,8.762500
0.155000,0.272500,0.352500,8.600000
0.175000,0.295000,0.215000,8.402500
0.195000,0.302500,0.172500,8.160000
0.215000,0.252500,0.232500,7.890000
0.235000,0.157500,0.352500,7.617500
0.255000,0.000000,0.465000,7.360000
0.275000,-0.240000,0.535000,7.135000
0.295000,-0.565000,0.577500,6.937500
0.315000,-0.962500,0.607500,6.747500
0.335000,-1.430000,0.632500,6.550000
0.355000,-1.970000,0.647500,6.340000
0.375000,-2.615000,0.635000,6.110000
0.395000,-3.410000,0.597500,5.867500
0.415000,-4.400000,0.520000,5.630000
0.435000,-5.600000,0.405000,5.427500
0.455000,-6.945000,0.240000,5.277500
0.475000,-8.290000,0.032500,5.190000
0.495000,-9.460000,-0.190000,5.135000
0.515000,-10.337500,-0.405000,5.087500
0.535000,-10.915000,-0.597500,5.040000
0.555000,-11.250000,-0.750000,4.997500
0.575000,-11.427500,-0.855000,4.960000
0.595000,-11.500000,-0.940000,4.925000
0.615000,-11.487500,-1.025000,4.890000
0.635000,-11.390000,-1.127500,4.850000
0.655000,-11.225000,-1.252500,4.805000
0.675000,-11.010000,-1.402500,4.755000
0.695000,-10.762500,-1.577500,4.702500
0.715000,-10.505000,-1.770000,4.655000
0.735000,-10.237500,-1.965000,4.610000
0.755000,-9.967500,-2.145000,4.562500
0.775000,-9.725000,-2.302500,4.527500
0.795000,-9.532500,-2.430000,4.510000
0.815000,-9.392500,-2.527500,4.507500
0.835000,-9.302500,-2.592500,4.512500
0.855000,-9.252500,-2.635000,4.520000
0.875000,-9.232500,-2.672500,4.552500
0.895000,-9.237500,-2.722500,4.615000
0.915000,-9.270000,-2.785000,4.700000
0.935000,-9.315000,-2.865000,4.777500
0.955000,-9.375000,-2.940000,4.860000
0.975000,-9.435000,-2.992500,4.970000
0.995000,-9.487500,-3.095000,5.095000
1.015000,-9.527500,-3.230000,5.207500
1.035000,-9.535000,-3.300000,5.317500
1.055000,-9.492500,-3.287500,5.430000
1.075000,-9.395000,-3.240000,5.527500
1.095000,-9.235000,-3.185000,5.597500
1.115000,-9.015000,-3.122500,5.655000
1.135000,-8.742500,-3.062500,5.687500
1.155000,-8.422500,-3.037500,5.677500
1.175000,-8.040000,-3.017500,5.625000
1.195000,-7.607500,-2.975000,5.535000
1.215000,-7.147500,-2.902500,5.410000
1.235000,-6.702500,-2.822500,5.245000
1.255000,-6.302500,-2.750000,5.067500
1.275000,-5.892500,-2.697500,4.885000
1.295000,-5.385000,-2.687500,4.707500
1.315000,-4.765000,-2.672500,4.555000
1.335000,-4.240000,-2.627500,4.410000
1.355000,-4.250000,-2.575000,4.277500
1.375000,-4.577500,-2.545000,4.110000
1.395000,-4.625000,-2.535000,3.965000
1.415000,-4.472500,-2.462500,3.847500
1.435000,-4.495000,-2.265000,3.882500
1.455000,-4.575000,-2.005000,3.950000
1.475000,-4.812500,-1.930000,3.842500
1.495000,-5.617500,-2.077500,3.557500
1.515000,-6.695000,-2.175000,3.127500
1.535000,-12.220000,-3.027500,6.335000
1.555000,-22.310000,-4.055000,12.790000
1.575000,-12.582500,-3.665000,2.872500
1.595000,17.240000,-2.097500,-15.607500
1.615000,-12.185000,0.812500,-2.032500
1.635000,-11.685000,0.432500,13.537500
1.655000,-6.677500,-2.182500,11.847500
1.675000,-3.800000,-3.402500,10.220000
1.695000,-0.260000,-3.015000,9.202500
1.715000,-0.265000,-2.722500,9.977500
1.735000,-1.870000,-2.557500,10.247500
1.755000,-2.967500,-2.590000,10.107500
1.775000,-2.457500,-2.732500,10.115000
1.795000,-1.512500,-3.087500,10.062500
1.815000,-1.247500,-3.550000,10.057500
1.835000,-1.090000,-3.715000,10.062500
1.855000,-0.777500,-3.330000,10.000000
1.875000,-0.327500,-2.757500,9.902500
1.895000,0.037500,-2.565000,9.847500
1.915000,0.240000,-2.830000,9.910000
1.935000,0.272500,-3.240000,10.007500
1.955000,0.195000,-3.430000,10.027500
1.975000,0.182500,-3.350000,9.967500
1.995000,0.265000,-3.147500,10.030000
2.015000,0.312500,-2.952500,10.165000
2.035000,0.320000,-2.845000,10.252500
2.055000,0.387500,-2.827500,10.277500
2.075000,0.495000,-2.837500,10.277500
2.095000,0.545000,-2.870000,10.270000
2.115000,0.575000,-2.912500,10.267500
2.135000,0.620000,-2.892500,10.270000
2.155000,0.667500,-2.815000,10.285000
2.175000,0.712500,-2.710000,10.297500
2.195000,0.760000,-2.622500,10.297500
2.215000,0.797500,-2.575000,10.307500
2.235000,0.817500,-2.572500,10.320000
2.255000,0.830000,-2.605000,10.322500
2.275000,0.860000,-2.632500,10.320000
2.295000,0.880000,-2.630000,10.322500
2.315000,0.880000,-2.605000,10.335000
2.335000,0.890000,-2.572500,10.347500
2.355000,0.927500,-2.557500,10.360000
2.375000,0.950000,-2.557500,10.375000
2.395000,0.947500,-2.557500,10.380000
2.415000,0.960000,-2.545000,10.385000
2.435000,0.977500,-2.545000,10.392500
2.455000,0.975000,-2.557500,10.402500
2.475000,0.970000,-2.565000,10.405000
2.495000,0.990000,-2.557500,10.400000
2.515000,1.010000,-2.555000,10.410000
2.535000,1.005000,-2.552500,10.422500
2.555000,1.002500,-2.545000,10.437500
2.575000,1.015000,-2.532500,10.440000
2.595000,1.025000,-2.522500,10.442500
2.615000,1.027500,-2.517500,10.447500
2.635000,1.022500,-2.520000,10.457500
2.655000,1.030000,-2.520000,10.460000
2.675000,1.050000,-2.507500,10.457500
2.695000,1.055000,-2.490000,10.462500
2.715000,1.047500,-2.480000,10.470000
2.735000,1.047500,-2.477500,10.480000
2.755000,1.057500,-2.475000,10.482500
2.775000,1.065000,-2.467500,10.482500
2.795000,1.067500,-2.457500,10.487500
2.815000,1.070000,-2.455000,10.492500
2.835000,1.075000,-2.450000,10.495000
2.855000,1.075000,-2.442500,10.500000
2.875000,1.075000,-2.435000,10.505000
2.895000,1.080000,-2.432500,10.507500
2.915000,1.087500,-2.432500,10.507500
2.935000,1.090000,-2.427500,10.510000
2.955000,1.087500,-2.425000,10.512500
2.975000,1.090000,-2.427500,10.512500
2.995000,1.100000,-2.427500,10.512500
3.015000,1.102500,-2.422500,10.517500
3.035000,1.102500,-2.417500,10.520000
3.055000,1.102500,-2.415000,10.525000
3.075000,1.107500,-2.412500,10.527500
3.095000,1.112500,-2.407500,10.527500
3.115000,1.112500,-2.402500,10.530000
3.135000,1.115000,-2.397500,10.532500
3.155000,1.117500,-2.395000,10.535000
3.175000,1.117500,-2.392500,10.540000
3.195000,1.120000,-2.390000,10.540000
3.215000,1.125000,-2.385000,10.540000
3.235000,1.130000,-2.382500,10.542500
3.255000,1.130000,-2.377500,10.545000
3.275000,1.130000,-2.372500,10.550000
3.295000,1.132500,-2.367500,10.550000
3.315000,1.132500,-2.365000,10.552500
3.335000,1.132500,-2.362500,10.555000
3.355000,1.132500,-2.360000,10.560000
3.375000,1.135000,-2.357500,10.560000
3.395000,1.140000,-2.352500,10.560000
3.415000,1.142500,-2.350000,10.562500
3.435000,1.140000,-2.350000,10.562500
3.455000,1.142500,-2.347500,10.565000
3.475000,1.145000,-2.342500,10.567500
3.495000,1.147500,-2.340000,10.570000
3.515000,1.150000,-2.337500,10.570000
3.535000,1.150000,-2.337500,10.570000
3.555000,1.152500,-2.335000,10.572500
3.575000,1.152500,-2.332500,10.572500
3.595000,1.152500,-2.330000,10.575000
3.615000,1.155000,-2.330000,10.575000
3.635000,1.157500,-2.327500,10.577500
3.655000,1.157500,-2.322500,10.577500
3.675000,1.157500,-2.320000,10.580000
3.695000,1.160000,-2.320000,10.580000
3.715000,1.162500,-2.320000,10.580000
3.735000,1.162500,-2.317500,10.582500
3.755000,1.162500,-2.315000,10.582500
3.775000,1.165000,-2.312500,10.585000
3.795000,1.167500,-2.310000,10.585000
3.815000,1.167500,-2.307500,10.585000
3.835000,1.167500,-2.302500,10.585000
3.855000,1.167500,-2.300000,10.587500
3.875000,1.170000,-2.300000,10.590000
3.895000,1.172500,-2.297500,10.590000
3.915000,1.172500,-2.295000,10.590000
3.935000,1.172500,-2.292500,10.592500
3.955000,1.172500,-2.292500,10.595000
3.975000,1.175000,-2.290000,10.595000
3.995000,1.177500,-2.285000,10.595000
4.015000,1.177500,-2.282500,10.595000
4.035000,1.177500,-2.282500,10.597500
4.055000,1.177500,-2.282500,10.600000
4.075000,1.180000,-2.280000,10.600000
4.095000,1.180000,-2.275000,10.600000
4.115000,1.180000,-2.272500,10.602500
4.135000,1.182500,-2.270000,10.605000
4.155000,1.182500,-2.267500,10.605000
4.175000,1.182500,-2.265000,10.605000
4.195000,1.182500,-2.265000,10.607500
4.215000,1.185000,-2.265000,10.607500
4.235000,1.185000,-2.262500,10.610000
4.255000,1.187500,-2.257500,10.610000
4.275000,1.187500,-2.255000,10.610000
4.295000,1.187500,-2.252500,10.612500
4.315000,1.190000,-2.250000,10.615000
4.335000,1.190000,-2.250000,10.615000
4.355000,1.190000,-2.250000,10.615000
4.375000,1.190000,-2.247500,10.615000
4.395000,1.192500,-2.245000,10.617500
4.415000,1.192500,-2.242500,10.617500
4.435000,1.195000,-2.242500,10.617500
4.455000,1.195000,-2.240000,10.617500
4.475000,1.195000,-2.237500,10.620000
4.495000,1.197500,-2.237500,10.620000
4.515000,1.197500,-2.235000,10.622500
4.535000,1.197500,-2.235000,10.622500
4.555000,1.200000,-2.232500,10.622500
4.575000,1.200000,-2.230000,10.622500
4.595000,1.202500,-2.227500,10.625000
4.615000,1.202500,-2.227500,10.625000
4.635000,1.205000,-2.225000,10.625000
4.655000,1.205000,-2.222500,10.627500
4.675000,1.205000,-2.222500,10.627500
4.695000,1.207500,-2.220000,10.630000
4.715000,1.210000,-2.217500,10.630000
4.735000,1.207500,-2.215000,10.630000
4.755000,1.207500,-2.215000,10.632500
4.775000,1.210000,-2.212500,10.632500
4.795000,1.212500,-2.210000,10.632500
4.815000,1.212500,-2.207500,10.635000
4.835000,1.212500,-2.207500,10.635000
4.855000,1.212500,-2.205000,10.635000
4.875000,1.215000,-2.205000,10.635000
4.895000,1.215000,-2.202500,10.637500
4.915000,1.215000,-2.202500,10.637500
4.935000,1.217500,-2.200000,10.637500
4.955000,1.217500,-2.200000,10.637500
4.975000,1.217500,-2.195000,10.637500
4.995000,1.220000,-2.195000,10.640000
5.015000,1.220000,-2.195000,10.640000
5.035000,1.222500,-2.192500,10.640000
5.055000,1.222500,-2.192500,10.642500
5.075000,1.222500,-2.190000,10.642500
5.095000,1.225000,-2.187500,10.642500
5.115000,1.225000,-2.185000,10.642500
5.135000,1.225000,-2.185000,10.645000
5.155000,1.227500,-2.185000,10.645000
5.175000,1.227500,-2.182500,10.645000
5.195000,1.227500,-2.180000,10.647500
5.215000,1.227500,-2.177500,10.647500
5.235000,1.230000,-2.177500,10.647500
5.255000,1.230000,-2.175000,10.647500
5.275000,1.230000,-2.175000,10.647500
5.295000,1.230000,-2.172500,10.650000
5.315000,1.232500,-2.172500,10.652500
5.335000,1.235000,-2.170000,10.652500
5.355000,1.235000,-2.167500,10.652500
5.375000,1.235000,-2.165000,10.652500
5.395000,1.235000,-2.165000,10.655000
5.415000,1.235000,-2.165000,10.652500
5.435000,1.235000,-2.165000,10.652500
5.455000,1.237500,-2.162500,10.655000
5.475000,1.240000,-2.162500,10.655000
5.495000,1.240000,-2.160000,10.655000
5.515000,1.240000,-2.157500,10.657500
5.535000,1.240000,-2.155000,10.657500
5.555000,1.240000,-2.152500,10.657500
5.575000,1.240000,-2.152500,10.660000
5.595000,1.242500,-2.152500,10.660000
5.615000,1.245000,-2.150000,10.660000
5.635000,1.245000,-2.145000,10.660000
5.655000,1.242500,-2.145000,10.662500
5.675000,1.242500,-2.142500,10.662500
5.695000,1.245000,-2.142500,10.662500
5.715000,1.247500,-2.140000,10.662500
5.735000,1.245000,-2.140000,10.665000
5.755000,1.245000,-2.140000,10.665000
5.775000,1.247500,-2.135000,10.667500
5.795000,1.247500,-2.135000,10.665000
5.815000,1.247500,-2.132500,10.667500
5.835000,1.247500,-2.132500,10.667500
5.855000,1.250000,-2.132500,10.670000
5.875000,1.250000,-2.127500,10.670000
5.895000,1.250000,-2.125000,10.670000
5.915000,1.250000,-2.122500,10.672500
5.935000,1.250000,-2.122500,10.672500
5.955000,1.252500,-2.120000,10.672500
5.975000,1.252500,-2.120000,10.672500
5.995000,1.252500,-2.120000,10.672500
6.015000,1.252500,-2.117500,10.672500
6.035000,1.255000,-2.115000,10.672500
6.055000,1.255000,-2.110000,10.672500
6.075000,1.255000,-2.110000,10.675000
6.095000,1.255000,-2.110000,10.677500
6.115000,1.255000,-2.110000,10.675000
6.135000,1.257500,-2.107500,10.675000
6.155000,1.257500,-2.107500,10.677500
6.175000,1.257500,-2.105000,10.677500
6.195000,1.257500,-2.102500,10.677500
6.215000,1.260000,-2.100000,10.677500
6.235000,1.260000,-2.100000,10.680000
6.255000,1.260000,-2.100000,10.680000
6.275000,1.260000,-2.100000,10.680000
6.295000,1.262500,-2.097500,10.680000
6.315000,1.262500,-2.100000,10.677500
6.335000,1.265000,-2.100000,10.675000
6.355000,1.267500,-2.105000,10.675000
6.375000,1.262500,-2.107500,10.677500
6.395000,1.265000,-2.107500,10.677500
6.415000,1.267500,-2.105000,10.677500
6.435000,1.265000,-2.102500,10.677500
6.455000,1.262500,-2.097500,10.680000
6.475000,1.265000,-2.082500,10.680000
6.495000,1.267500,-2.060000,10.680000
6.515000,1.267500,-2.040000,10.685000
6.535000,1.262500,-2.017500,10.690000
6.555000,1.262500,-1.990000,10.687500
6.575000,1.270000,-1.957500,10.687500
6.595000,1.272500,-1.927500,10.695000
6.615000,1.267500,-1.907500,10.697500
6.635000,1.267500,-1.880000,10.700000
6.655000,1.272500,-1.840000,10.700000
6.675000,1.272500,-1.802500,10.702500
6.695000,1.275000,-1.775000,10.705000
6.715000,1.277500,-1.742500,10.702500
6.735000,1.280000,-1.705000,10.707500
6.755000,1.282500,-1.677500,10.707500
6.775000,1.285000,-1.655000,10.710000
6.795000,1.287500,-1.627500,10.712500
6.815000,1.287500,-1.597500,10.715000
6.835000,1.287500,-1.567500,10.715000
6.855000,1.295000,-1.540000,10.710000
6.875000,1.297500,-1.507500,10.712500
6.895000,1.297500,-1.470000,10.717500
6.915000,1.297500,-1.437500,10.717500
6.935000,1.302500,-1.412500,10.720000
6.955000,1.305000,-1.390000,10.722500
6.975000,1.302500,-1.362500,10.725000
6.995000,1.305000,-1.332500,10.725000
7.015000,1.312500,-1.305000,10.725000
7.035000,1.315000,-1.280000,10.725000
7.055000,1.310000,-1.257500,10.730000
7.075000,1.312500,-1.240000,10.730000
7.095000,1.317500,-1.217500,10.730000
7.115000,1.320000,-1.200000,10.732500
7.135000,1.325000,-1.180000,10.730000
7.155000,1.332500,-1.160000,10.727500
7.175000,1.330000,-1.137500,10.732500
7.195000,1.330000,-1.115000,10.737500
7.215000,1.332500,-1.090000,10.737500
7.235000,1.342500,-1.070000,10.737500
7.255000,1.345000,-1.052500,10.737500
7.275000,1.342500,-1.037500,10.740000
7.295000,1.347500,-1.017500,10.740000
7.315000,1.355000,-0.997500,10.737500
7.335000,1.357500,-0.975000,10.742500
7.355000,1.355000,-0.957500,10.745000
7.375000,1.355000,-0.945000,10.747500
7.395000,1.362500,-0.932500,10.745000
7.415000,1.365000,-0.912500,10.747500
7.435000,1.365000,-0.895000,10.750000
7.455000,1.370000,-0.880000,10.750000
7.475000,1.372500,-0.862500,10.750000
7.495000,1.372500,-0.845000,10.750000
7.515000,1.375000,-0.827500,10.755000
7.535000,1.380000,-0.810000,10.755000
7.555000,1.382500,-0.795000,10.755000
7.575000,1.380000,-0.780000,10.755000
7.595000,1.382500,-0.767500,10.757500
7.615000,1.385000,-0.752500,10.760000
7.635000,1.390000,-0.737500,10.757500
7.655000,1.392500,-0.720000,10.760000
7.675000,1.387500,-0.695000,10.765000
7.695000,1.390000,-0.690000,10.765000
7.715000,1.390000,-0.695000,10.765000
7.735000,1.400000,-0.677500,10.767500
7.755000,1.405000,-0.657500,10.767500
7.775000,1.405000,-0.645000,10.770000
7.795000,1.402500,-0.625000,10.772500
7.815000,1.407500,-0.602500,10.772500
7.835000,1.412500,-0.615000,10.772500
7.855000,1.410000,-0.607500,10.777500
7.875000,1.412500,-0.595000,10.777500
7.895000,1.412500,-0.585000,10.780000
7.915000,1.412500,-0.575000,10.780000
7.935000,1.417500,-0.560000,10.780000
7.955000,1.422500,-0.545000,10.782500
7.975000,1.417500,-0.540000,10.782500
7.995000,1.417500,-0.537500,10.785000
