accel_time_list,accel_x_list,accel_y_list,accel_z_list
0.010000,0.707500,0.432500,10.455000
0.030000,0.757500,0.430000,10.587500
0.050000,0.852500,0.390000,10.687500
0.070000,0.910000,0.335000,10.757500
0.090000,0.912500,0.355000,10.800000
0.110000,0.870000,0.420000,10.832500
0.130000,0.820000,0.420000,10.822500
0.150000,0.810000,0.402500,10.777500
0.170000,0.790000,0.417500,10.687500
0.190000,0.760000,0.442500,10.565000
0.210000,0.675000,0.470000,10.412500
0.230000,0.570000,0.455000,10.250000
0.250000,0.352500,0.455000,10.082500
0.270000,0.315000,0.605000,9.960000
0.290000,0.305000,0.772500,9.895000
0.310000,0.282500,0.975000,9.867500
0.330000,0.250000,1.165000,9.832500
0.350000,0.197500,1.302500,9.815000
0.370000,0.122500,1.385000,9.837500
0.390000,0.040000,1.447500,9.890000
0.410000,-0.022500,1.525000,9.945000
0.430000,-0.105000,1.595000,10.010000
0.450000,-0.227500,1.642500,10.100000
0.470000,-0.345000,1.685000,10.195000
0.490000,-0.457500,1.707500,10.285000
0.510000,-0.585000,1.680000,10.365000
0.530000,-0.710000,1.607500,10.425000
0.550000,-0.800000,1.522500,10.467500
0.570000,-0.870000,1.445000,10.515000
0.590000,-0.960000,1.372500,10.555000
0.610000,-1.057500,1.280000,10.577500
0.630000,-1.130000,1.182500,10.595000
0.650000,-1.190000,1.105000,10.620000
0.670000,-1.262500,1.037500,10.642500
0.690000,-1.335000,0.950000,10.645000
0.710000,-1.387500,0.860000,10.647500
0.730000,-1.427500,0.780000,10.655000
0.750000,-1.477500,0.717500,10.655000
0.770000,-1.525000,0.655000,10.645000
0.790000,-1.555000,0.582500,10.632500
0.810000,-1.575000,0.512500,10.617500
0.830000,-1.605000,0.465000,10.602500
0.850000,-1.642500,0.435000,10.585000
0.870000,-1.672500,0.395000,10.557500
0.890000,-1.695000,0.352500,10.530000
0.910000,-1.720000,0.322500,10.505000
0.930000,-1.740000,0.300000,10.477500
0.950000,-1.757500,0.262500,10.440000
0.970000,-1.772500,0.217500,10.397500
0.990000,-1.785000,0.190000,10.355000
1.010000,-1.790000,0.182500,10.310000
1.030000,-1.790000,0.182500,10.257500
1.050000,-1.790000,0.182500,10.197500
1.070000,-1.792500,0.182500,10.130000
1.090000,-1.782500,0.182500,10.055000
1.110000,-1.765000,0.180000,9.970000
1.130000,-1.750000,0.175000,9.875000
1.150000,-1.737500,0.167500,9.772500
1.170000,-1.720000,0.160000,9.660000
1.190000,-1.695000,0.150000,9.537500
1.210000,-1.670000,0.142500,9.400000
1.230000,-1.647500,0.132500,9.250000
1.250000,-1.630000,0.115000,9.095000
1.270000,-1.617500,0.102500,8.937500
1.290000,-1.620000,0.107500,8.760000
1.310000,-1.635000,0.105000,8.547500
1.330000,-1.665000,0.090000,8.270000
1.350000,-1.715000,0.072500,7.957500
1.370000,-1.800000,0.070000,7.627500
1.390000,-1.897500,0.055000,7.240000
1.410000,-1.997500,0.010000,6.777500
1.430000,-2.120000,-0.062500,6.287500
1.450000,-2.170000,-0.162500,5.710000
1.470000,-1.997500,-0.277500,4.900000
1.490000,-1.612500,-0.300000,3.875000
1.510000,-1.617500,-0.170000,3.727500
1.530000,-3.032500,-0.355000,9.315000
1.550000,-3.882500,-1.290000,16.402500
1.570000,-1.692500,-1.030000,4.042500
1.590000,-1.422500,-0.497500,-2.410000
1.610000,-1.155000,0.420000,-5.012500
1.630000,-1.540000,0.945000,-3.460000
1.650000,-3.552500,0.547500,-4.190000
1.670000,-3.655000,0.065000,-7.067500
1.690000,-0.992500,0.027500,-8.435000
1.710000,3.412500,-0.152500,-8.490000
1.730000,4.435000,-0.472500,-7.717500
1.750000,3.887500,-0.590000,-7.057500
1.770000,3.192500,-0.395000,-6.242500
1.790000,2.885000,-0.050000,-5.270000
1.810000,3.332500,0.272500,-4.447500
1.830000,4.125000,0.365000,-4.190000
1.850000,4.802500,0.275000,-4.102500
1.870000,4.927500,0.095000,-3.732500
1.890000,4.490000,-0.137500,-3.057500
1.910000,3.875000,-0.395000,-2.245000
1.930000,3.450000,-0.605000,-1.270000
1.950000,2.952500,-0.655000,0.145000
1.970000,0.430000,-0.347500,8.670000
1.990000,-2.640000,-0.290000,19.405000
2.010000,-2.105000,-0.122500,13.765000
2.030000,-0.765000,0.062500,9.892500
2.050000,-0.227500,0.205000,7.872500
2.070000,-0.550000,0.245000,6.747500
2.090000,-0.767500,0.277500,6.060000
2.110000,-0.680000,0.265000,5.595000
2.130000,-0.525000,0.267500,5.542500
2.150000,-0.457500,0.332500,5.880000
2.170000,-0.502500,0.445000,7.345000
2.190000,-0.930000,0.465000,10.412500
2.210000,-1.097500,0.237500,11.052500
2.230000,-0.797500,0.005000,10.472500
2.250000,-0.492500,-0.112500,9.747500
2.270000,-0.420000,-0.137500,9.262500
2.290000,-0.460000,-0.110000,9.235000
2.310000,-0.515000,-0.107500,9.615000
2.330000,-0.597500,-0.180000,10.122500
2.350000,-0.615000,-0.275000,10.380000
2.370000,-0.562500,-0.310000,10.402500
2.390000,-0.537500,-0.302500,10.350000
2.410000,-0.552500,-0.292500,10.322500
2.430000,-0.572500,-0.317500,10.330000
2.450000,-0.577500,-0.370000,10.375000
2.470000,-0.572500,-0.412500,10.427500
2.490000,-0.567500,-0.425000,10.470000
2.510000,-0.567500,-0.425000,10.497500
2.530000,-0.552500,-0.440000,10.492500
2.550000,-0.520000,-0.477500,10.492500
2.570000,-0.492500,-0.517500,10.507500
2.590000,-0.467500,-0.532500,10.532500
2.610000,-0.445000,-0.525000,10.555000
2.630000,-0.420000,-0.512500,10.560000
2.650000,-0.392500,-0.507500,10.555000
2.670000,-0.372500,-0.495000,10.555000
2.690000,-0.362500,-0.475000,10.567500
2.710000,-0.367500,-0.475000,10.587500
2.730000,-0.367500,-0.500000,10.610000
2.750000,-0.360000,-0.535000,10.622500
2.770000,-0.337500,-0.557500,10.615000
2.790000,-0.320000,-0.577500,10.595000
2.810000,-0.305000,-0.590000,10.585000
2.830000,-0.300000,-0.600000,10.597500
2.850000,-0.305000,-0.617500,10.605000
2.870000,-0.300000,-0.635000,10.602500
2.890000,-0.297500,-0.670000,10.635000
2.910000,-0.307500,-0.725000,10.672500
2.930000,-0.305000,-0.775000,10.682500
2.950000,-0.267500,-0.802500,10.680000
2.970000,-0.227500,-0.815000,10.677500
2.990000,-0.227500,-0.830000,10.672500
3.010000,-0.242500,-0.852500,10.662500
3.030000,-0.245000,-0.857500,10.642500
3.050000,-0.245000,-0.850000,10.610000
3.070000,-0.270000,-0.847500,10.587500
3.090000,-0.320000,-0.835000,10.607500
3.110000,-0.377500,-0.800000,10.625000
3.130000,-0.430000,-0.757500,10.630000
3.150000,-0.475000,-0.720000,10.632500
3.170000,-0.537500,-0.695000,10.655000
3.190000,-0.610000,-0.682500,10.662500
3.210000,-0.665000,-0.665000,10.647500
3.230000,-0.710000,-0.645000,10.622500
3.250000,-0.765000,-0.622500,10.595000
3.270000,-0.827500,-0.602500,10.572500
3.290000,-0.890000,-0.587500,10.555000
3.310000,-0.952500,-0.575000,10.540000
3.330000,-1.022500,-0.567500,10.527500
3.350000,-1.100000,-0.570000,10.512500
3.370000,-1.167500,-0.580000,10.490000
3.390000,-1.232500,-0.592500,10.462500
3.410000,-1.305000,-0.605000,10.437500
3.430000,-1.385000,-0.607500,10.420000
3.450000,-1.465000,-0.607500,10.405000
3.470000,-1.535000,-0.600000,10.387500
3.490000,-1.602500,-0.592500,10.372500
3.510000,-1.672500,-0.590000,10.360000
3.530000,-1.737500,-0.587500,10.345000
3.550000,-1.800000,-0.590000,10.335000
3.570000,-1.862500,-0.592500,10.320000
3.590000,-1.932500,-0.597500,10.307500
3.610000,-2.002500,-0.600000,10.290000
3.630000,-2.062500,-0.605000,10.267500
3.650000,-2.122500,-0.615000,10.247500
3.670000,-2.187500,-0.620000,10.232500
3.690000,-2.247500,-0.622500,10.220000
3.710000,-2.307500,-0.622500,10.205000
3.730000,-2.362500,-0.625000,10.187500
3.750000,-2.420000,-0.627500,10.172500
3.770000,-2.482500,-0.630000,10.157500
3.790000,-2.542500,-0.632500,10.142500
3.810000,-2.597500,-0.632500,10.127500
3.830000,-2.652500,-0.635000,10.112500
3.850000,-2.707500,-0.640000,10.095000
3.870000,-2.757500,-0.642500,10.080000
3.890000,-2.807500,-0.645000,10.065000
3.910000,-2.857500,-0.650000,10.050000
3.930000,-2.905000,-0.655000,10.040000
3.950000,-2.962500,-0.665000,10.027500
3.970000,-3.010000,-0.667500,10.012500
3.990000,-3.055000,-0.667500,9.997500
4.010000,-3.102500,-0.665000,9.982500
4.030000,-3.142500,-0.665000,9.967500
4.050000,-3.185000,-0.670000,9.957500
4.070000,-3.230000,-0.675000,9.945000
4.090000,-3.267500,-0.680000,9.930000
4.110000,-3.307500,-0.680000,9.920000
4.130000,-3.357500,-0.685000,9.915000
4.150000,-3.397500,-0.687500,9.905000
4.170000,-3.427500,-0.687500,9.890000
4.190000,-3.462500,-0.690000,9.877500
4.210000,-3.507500,-0.695000,9.867500
4.230000,-3.542500,-0.695000,9.855000
4.250000,-3.570000,-0.695000,9.842500
4.270000,-3.607500,-0.700000,9.840000
4.290000,-3.647500,-0.702500,9.837500
4.310000,-3.677500,-0.702500,9.830000
4.330000,-3.702500,-0.700000,9.820000
4.350000,-3.737500,-0.702500,9.820000
4.370000,-3.775000,-0.705000,9.827500
4.390000,-3.802500,-0.705000,9.832500
4.410000,-3.820000,-0.695000,9.837500
4.430000,-3.842500,-0.687500,9.850000
4.450000,-3.870000,-0.687500,9.862500
4.470000,-3.887500,-0.687500,9.872500
4.490000,-3.890000,-0.685000,9.882500
4.510000,-3.890000,-0.685000,9.895000
4.530000,-3.885000,-0.692500,9.905000
4.550000,-3.875000,-0.697500,9.915000
4.570000,-3.860000,-0.700000,9.925000
4.590000,-3.837500,-0.702500,9.935000
4.610000,-3.820000,-0.715000,9.942500
4.630000,-3.807500,-0.732500,9.947500
4.650000,-3.797500,-0.745000,9.957500
4.670000,-3.790000,-0.747500,9.975000
4.690000,-3.782500,-0.750000,9.992500
4.710000,-3.772500,-0.770000,10.005000
4.730000,-3.750000,-0.800000,10.020000
4.750000,-3.722500,-0.822500,10.045000
4.770000,-3.692500,-0.840000,10.070000
4.790000,-3.665000,-0.867500,10.100000
4.810000,-3.642500,-0.905000,10.130000
4.830000,-3.612500,-0.940000,10.152500
4.850000,-3.575000,-0.967500,10.172500
4.870000,-3.542500,-1.002500,10.192500
4.890000,-3.512500,-1.042500,10.205000
4.910000,-3.470000,-1.075000,10.205000
4.930000,-3.420000,-1.097500,10.205000
4.950000,-3.367500,-1.112500,10.205000
4.970000,-3.307500,-1.127500,10.200000
4.990000,-3.247500,-1.135000,10.187500
5.010000,-3.182500,-1.142500,10.172500
5.030000,-3.110000,-1.150000,10.155000
5.050000,-3.022500,-1.160000,10.132500
5.070000,-2.930000,-1.175000,10.102500
5.090000,-2.842500,-1.190000,10.082500
5.110000,-2.765000,-1.210000,10.062500
5.130000,-2.690000,-1.232500,10.037500
5.150000,-2.615000,-1.255000,10.007500
5.170000,-2.550000,-1.267500,9.982500
5.190000,-2.492500,-1.275000,9.957500
5.210000,-2.445000,-1.275000,9.935000
5.230000,-2.405000,-1.270000,9.917500
5.250000,-2.370000,-1.257500,9.907500
5.270000,-2.340000,-1.245000,9.907500
5.290000,-2.310000,-1.227500,9.907500
5.310000,-2.277500,-1.210000,9.905000
5.330000,-2.245000,-1.180000,9.907500
5.350000,-2.215000,-1.142500,9.917500
5.370000,-2.192500,-1.110000,9.930000
5.390000,-2.175000,-1.080000,9.940000
5.410000,-2.150000,-1.045000,9.947500
5.430000,-2.127500,-1.000000,9.957500
5.450000,-2.100000,-0.950000,9.970000
5.470000,-2.072500,-0.907500,9.980000
5.490000,-2.047500,-0.867500,9.990000
5.510000,-2.030000,-0.825000,10.007500
5.530000,-2.010000,-0.790000,10.027500
5.550000,-1.985000,-0.760000,10.045000
5.570000,-1.957500,-0.732500,10.057500
5.590000,-1.927500,-0.710000,10.075000
5.610000,-1.890000,-0.685000,10.090000
5.630000,-1.877500,-0.675000,10.110000
5.650000,-1.845000,-0.672500,10.127500
5.670000,-1.820000,-0.665000,10.140000
5.690000,-1.780000,-0.645000,10.147500
5.710000,-1.742500,-0.627500,10.155000
5.730000,-1.710000,-0.610000,10.165000
5.750000,-1.675000,-0.595000,10.177500
5.770000,-1.645000,-0.585000,10.185000
5.790000,-1.617500,-0.577500,10.195000
5.810000,-1.587500,-0.570000,10.202500
5.830000,-1.560000,-0.565000,10.212500
5.850000,-1.535000,-0.560000,10.220000
5.870000,-1.510000,-0.557500,10.227500
5.890000,-1.477500,-0.555000,10.232500
5.910000,-1.452500,-0.555000,10.240000
5.930000,-1.430000,-0.550000,10.250000
5.950000,-1.407500,-0.545000,10.257500
5.970000,-1.390000,-0.540000,10.265000
5.990000,-1.367500,-0.540000,10.272500
