gyro_time_list,gyro_x_list,gyro_y_list,gyro_z_list
0.010000,0.266000,-0.007000,0.021000
0.030000,0.229000,0.007000,-0.005000
0.050000,0.185000,0.027000,-0.019000
0.070000,0.163000,0.053000,-0.038000
0.090000,0.150000,0.079000,-0.050000
0.110000,0.130000,0.096000,-0.051000
0.130000,0.109000,0.099000,-0.050000
0.150000,0.098000,0.099000,-0.035000
0.170000,0.094000,0.100000,-0.019000
0.190000,0.086000,0.108000,-0.007000
0.210000,0.080000,0.120000,0.013000
0.230000,0.088000,0.132000,0.044000
0.250000,0.123000,0.133000,0.059000
0.270000,0.159000,0.134000,0.108000
0.290000,0.174000,0.150000,0.177000
0.310000,0.170000,0.177000,0.244000
0.330000,0.150000,0.211000,0.325000
0.350000,0.127000,0.248000,0.414000
0.370000,0.106000,0.288000,0.507000
0.390000,0.093000,0.325000,0.605000
0.410000,0.089000,0.363000,0.708000
0.430000,0.087000,0.403000,0.811000
0.450000,0.073000,0.441000,0.906000
0.470000,0.044000,0.471000,0.993000
0.490000,0.009000,0.495000,1.075000
0.510000,-0.032000,0.513000,1.150000
0.530000,-0.076000,0.523000,1.213000
0.550000,-0.113000,0.526000,1.269000
0.570000,-0.143000,0.529000,1.318000
0.590000,-0.170000,0.529000,1.361000
0.610000,-0.194000,0.525000,1.397000
0.630000,-0.210000,0.518000,1.426000
0.650000,-0.223000,0.511000,1.449000
0.670000,-0.239000,0.503000,1.465000
0.690000,-0.253000,0.491000,1.476000
0.710000,-0.261000,0.477000,1.481000
0.730000,-0.266000,0.463000,1.479000
0.750000,-0.272000,0.449000,1.473000
0.770000,-0.279000,0.433000,1.462000
0.790000,-0.283000,0.416000,1.449000
0.810000,-0.281000,0.401000,1.435000
0.830000,-0.278000,0.387000,1.421000
0.850000,-0.276000,0.373000,1.405000
0.870000,-0.277000,0.358000,1.387000
0.890000,-0.278000,0.344000,1.368000
0.910000,-0.278000,0.329000,1.349000
0.930000,-0.280000,0.314000,1.327000
0.950000,-0.282000,0.299000,1.303000
0.970000,-0.279000,0.285000,1.280000
0.990000,-0.271000,0.270000,1.257000
1.010000,-0.262000,0.255000,1.234000
1.030000,-0.256000,0.240000,1.211000
1.050000,-0.252000,0.224000,1.188000
1.070000,-0.249000,0.208000,1.165000
1.090000,-0.248000,0.189000,1.142000
1.110000,-0.249000,0.170000,1.119000
1.130000,-0.251000,0.153000,1.095000
1.150000,-0.253000,0.134000,1.070000
1.170000,-0.255000,0.113000,1.044000
1.190000,-0.256000,0.090000,1.018000
1.210000,-0.258000,0.067000,0.992000
1.230000,-0.260000,0.043000,0.964000
1.250000,-0.262000,0.016000,0.934000
1.270000,-0.261000,-0.012000,0.903000
1.290000,-0.262000,-0.043000,0.871000
1.310000,-0.267000,-0.079000,0.838000
1.330000,-0.276000,-0.115000,0.803000
1.350000,-0.285000,-0.148000,0.765000
1.370000,-0.297000,-0.178000,0.725000
1.390000,-0.315000,-0.215000,0.687000
1.410000,-0.332000,-0.248000,0.649000
1.430000,-0.344000,-0.274000,0.609000
1.450000,-0.351000,-0.306000,0.561000
1.470000,-0.346000,-0.315000,0.503000
1.490000,-0.327000,-0.210000,0.481000
1.510000,-0.334000,-0.069000,0.542000
1.530000,-0.322000,0.087000,0.670000
1.550000,-0.397000,-0.089000,0.485000
1.570000,-0.309000,-0.279000,0.342000
1.590000,-0.199000,-0.480000,0.224000
1.610000,-0.118000,-0.689000,0.182000
1.630000,-0.176000,-0.902000,0.201000
1.650000,-0.302000,-0.985000,0.232000
1.670000,-0.425000,-1.167000,0.178000
1.690000,-0.462000,-1.205000,0.144000
1.710000,-0.451000,-1.023000,0.175000
1.730000,-0.404000,-0.727000,0.159000
1.750000,-0.305000,-0.438000,0.129000
1.770000,-0.158000,-0.195000,0.135000
1.790000,-0.036000,-0.038000,0.143000
1.810000,-0.038000,0.073000,0.146000
1.830000,-0.131000,0.206000,0.153000
1.850000,-0.233000,0.409000,0.163000
1.870000,-0.305000,0.681000,0.176000
1.890000,-0.346000,0.967000,0.191000
1.910000,-0.334000,1.242000,0.205000
1.930000,-0.241000,1.503000,0.218000
1.950000,-0.060000,1.747000,0.242000
1.970000,0.154000,1.971000,0.297000
1.990000,0.112000,1.738000,0.295000
2.010000,0.090000,1.388000,0.231000
2.030000,0.109000,1.142000,0.209000
2.050000,0.133000,1.037000,0.221000
2.070000,0.127000,0.977000,0.217000
2.090000,0.095000,0.902000,0.204000
2.110000,0.077000,0.844000,0.200000
2.130000,0.073000,0.831000,0.202000
2.150000,0.066000,0.851000,0.205000
2.170000,0.051000,0.869000,0.209000
2.190000,-0.016000,0.820000,0.211000
2.210000,-0.102000,0.711000,0.196000
2.230000,-0.129000,0.621000,0.184000
2.250000,-0.108000,0.582000,0.183000
2.270000,-0.081000,0.569000,0.182000
2.290000,-0.072000,0.555000,0.178000
2.310000,-0.084000,0.534000,0.176000
2.330000,-0.099000,0.502000,0.172000
2.350000,-0.103000,0.464000,0.165000
2.370000,-0.093000,0.432000,0.159000
2.390000,-0.085000,0.407000,0.153000
2.410000,-0.087000,0.383000,0.148000
2.430000,-0.094000,0.357000,0.142000
2.450000,-0.096000,0.332000,0.136000
2.470000,-0.090000,0.311000,0.129000
2.490000,-0.083000,0.293000,0.123000
2.510000,-0.079000,0.275000,0.118000
2.530000,-0.077000,0.256000,0.115000
2.550000,-0.075000,0.239000,0.113000
2.570000,-0.069000,0.226000,0.110000
2.590000,-0.058000,0.215000,0.107000
2.610000,-0.049000,0.205000,0.105000
2.630000,-0.048000,0.195000,0.102000
2.650000,-0.049000,0.187000,0.100000
2.670000,-0.053000,0.182000,0.098000
2.690000,-0.063000,0.179000,0.096000
2.710000,-0.076000,0.175000,0.095000
2.730000,-0.086000,0.169000,0.093000
2.750000,-0.092000,0.164000,0.092000
2.770000,-0.097000,0.160000,0.090000
2.790000,-0.103000,0.159000,0.088000
2.810000,-0.107000,0.162000,0.087000
2.830000,-0.109000,0.165000,0.088000
2.850000,-0.113000,0.168000,0.090000
2.870000,-0.118000,0.173000,0.092000
2.890000,-0.123000,0.179000,0.095000
2.910000,-0.124000,0.187000,0.098000
2.930000,-0.118000,0.195000,0.102000
2.950000,-0.109000,0.206000,0.108000
2.970000,-0.098000,0.223000,0.114000
2.990000,-0.087000,0.244000,0.121000
3.010000,-0.073000,0.265000,0.129000
3.030000,-0.058000,0.286000,0.136000
3.050000,-0.045000,0.310000,0.144000
3.070000,-0.034000,0.334000,0.150000
3.090000,-0.018000,0.354000,0.153000
3.110000,-0.004000,0.370000,0.153000
3.130000,0.005000,0.382000,0.153000
3.150000,0.009000,0.393000,0.151000
3.170000,0.008000,0.402000,0.149000
3.190000,0.005000,0.409000,0.146000
3.210000,0.003000,0.413000,0.142000
3.230000,0.002000,0.417000,0.139000
3.250000,0.000000,0.421000,0.135000
3.270000,-0.005000,0.425000,0.132000
3.290000,-0.009000,0.428000,0.129000
3.310000,-0.015000,0.430000,0.127000
3.330000,-0.023000,0.432000,0.125000
3.350000,-0.032000,0.432000,0.122000
3.370000,-0.040000,0.432000,0.120000
3.390000,-0.045000,0.432000,0.117000
3.410000,-0.046000,0.433000,0.115000
3.430000,-0.046000,0.434000,0.113000
3.450000,-0.045000,0.434000,0.110000
3.470000,-0.045000,0.433000,0.108000
3.490000,-0.045000,0.432000,0.105000
3.510000,-0.047000,0.431000,0.102000
3.530000,-0.049000,0.430000,0.099000
3.550000,-0.051000,0.428000,0.096000
3.570000,-0.053000,0.426000,0.093000
3.590000,-0.055000,0.424000,0.090000
3.610000,-0.056000,0.421000,0.088000
3.630000,-0.056000,0.418000,0.086000
3.650000,-0.057000,0.414000,0.084000
3.670000,-0.056000,0.411000,0.083000
3.690000,-0.056000,0.407000,0.082000
3.710000,-0.056000,0.403000,0.080000
3.730000,-0.056000,0.399000,0.079000
3.750000,-0.057000,0.395000,0.078000
3.770000,-0.058000,0.391000,0.077000
3.790000,-0.058000,0.387000,0.075000
3.810000,-0.059000,0.383000,0.074000
3.830000,-0.059000,0.380000,0.072000
3.850000,-0.060000,0.376000,0.071000
3.870000,-0.060000,0.373000,0.069000
3.890000,-0.060000,0.370000,0.067000
3.910000,-0.060000,0.366000,0.066000
3.930000,-0.060000,0.363000,0.064000
3.950000,-0.058000,0.360000,0.062000
3.970000,-0.056000,0.356000,0.061000
3.990000,-0.055000,0.353000,0.060000
4.010000,-0.054000,0.350000,0.058000
4.030000,-0.055000,0.347000,0.057000
4.050000,-0.055000,0.343000,0.056000
4.070000,-0.055000,0.340000,0.055000
4.090000,-0.055000,0.337000,0.054000
4.110000,-0.055000,0.335000,0.053000
4.130000,-0.055000,0.331000,0.053000
4.150000,-0.054000,0.328000,0.052000
4.170000,-0.053000,0.324000,0.051000
4.190000,-0.053000,0.321000,0.051000
4.210000,-0.054000,0.318000,0.050000
4.230000,-0.054000,0.315000,0.049000
4.250000,-0.054000,0.312000,0.048000
4.270000,-0.054000,0.309000,0.047000
4.290000,-0.053000,0.306000,0.047000
4.310000,-0.051000,0.303000,0.046000
4.330000,-0.050000,0.300000,0.046000
4.350000,-0.051000,0.297000,0.044000
4.370000,-0.049000,0.293000,0.043000
4.390000,-0.046000,0.288000,0.043000
4.410000,-0.045000,0.283000,0.043000
4.430000,-0.046000,0.278000,0.043000
4.450000,-0.047000,0.271000,0.042000
4.470000,-0.047000,0.264000,0.041000
4.490000,-0.049000,0.255000,0.040000
4.510000,-0.053000,0.246000,0.038000
4.530000,-0.056000,0.236000,0.035000
4.550000,-0.059000,0.227000,0.032000
4.570000,-0.062000,0.217000,0.028000
4.590000,-0.067000,0.206000,0.023000
4.610000,-0.072000,0.196000,0.017000
4.630000,-0.073000,0.186000,0.010000
4.650000,-0.071000,0.177000,0.004000
4.670000,-0.070000,0.167000,-0.004000
4.690000,-0.073000,0.155000,-0.013000
4.710000,-0.076000,0.141000,-0.024000
4.730000,-0.075000,0.125000,-0.034000
4.750000,-0.071000,0.108000,-0.044000
4.770000,-0.069000,0.090000,-0.055000
4.790000,-0.066000,0.070000,-0.068000
4.810000,-0.058000,0.048000,-0.081000
4.830000,-0.046000,0.023000,-0.095000
4.850000,-0.035000,-0.004000,-0.109000
4.870000,-0.024000,-0.033000,-0.125000
4.890000,-0.012000,-0.063000,-0.143000
4.910000,0.002000,-0.094000,-0.161000
4.930000,0.015000,-0.125000,-0.180000
4.950000,0.026000,-0.155000,-0.202000
4.970000,0.035000,-0.182000,-0.225000
4.990000,0.040000,-0.207000,-0.249000
5.010000,0.040000,-0.229000,-0.273000
5.030000,0.035000,-0.248000,-0.300000
5.050000,0.027000,-0.261000,-0.329000
5.070000,0.019000,-0.267000,-0.360000
5.090000,0.013000,-0.267000,-0.390000
5.110000,0.007000,-0.262000,-0.420000
5.130000,0.004000,-0.255000,-0.449000
5.150000,0.007000,-0.244000,-0.476000
5.170000,0.014000,-0.230000,-0.501000
5.190000,0.022000,-0.213000,-0.528000
5.210000,0.029000,-0.196000,-0.553000
5.230000,0.037000,-0.178000,-0.574000
5.250000,0.047000,-0.160000,-0.593000
5.270000,0.056000,-0.143000,-0.611000
5.290000,0.064000,-0.127000,-0.626000
5.310000,0.076000,-0.112000,-0.637000
5.330000,0.088000,-0.097000,-0.647000
5.350000,0.095000,-0.084000,-0.657000
5.370000,0.098000,-0.073000,-0.664000
5.390000,0.099000,-0.063000,-0.669000
5.410000,0.102000,-0.054000,-0.671000
5.430000,0.103000,-0.048000,-0.672000
5.450000,0.099000,-0.042000,-0.672000
5.470000,0.093000,-0.036000,-0.671000
5.490000,0.087000,-0.029000,-0.669000
5.510000,0.080000,-0.024000,-0.663000
5.530000,0.071000,-0.020000,-0.655000
5.550000,0.063000,-0.016000,-0.646000
5.570000,0.056000,-0.013000,-0.635000
5.590000,0.049000,-0.011000,-0.624000
5.610000,0.042000,-0.008000,-0.612000
5.630000,0.034000,-0.007000,-0.598000
5.650000,0.030000,-0.006000,-0.588000
5.670000,0.029000,-0.006000,-0.575000
5.690000,0.028000,-0.007000,-0.563000
5.710000,0.026000,-0.006000,-0.552000
5.730000,0.021000,-0.006000,-0.540000
5.750000,0.015000,-0.005000,-0.530000
5.770000,0.009000,-0.004000,-0.522000
5.790000,0.003000,-0.004000,-0.513000
5.810000,-0.002000,-0.003000,-0.505000
5.830000,-0.007000,-0.002000,-0.498000
5.850000,-0.012000,-0.002000,-0.491000
5.870000,-0.015000,-0.001000,-0.483000
5.890000,-0.017000,0.000000,-0.476000
5.910000,-0.019000,0.001000,-0.469000
5.930000,-0.020000,0.004000,-0.463000
5.950000,-0.021000,0.006000,-0.457000
5.970000,-0.023000,0.008000,-0.452000
5.990000,-0.026000,0.010000,-0.447000
