accel_time_list,accel_x_list,accel_y_list,accel_z_list
0.310000,-19.553446,-4.149151,-0.414197
0.330000,-19.458874,-4.607641,-0.233435
0.350000,-19.241922,-5.154187,0.038973
0.370000,-18.870478,-5.853197,0.265705
0.390000,-18.335649,-6.429685,0.422559
0.410000,-17.702549,-6.788819,0.514205
0.430000,-17.024233,-6.981949,0.587939
0.450000,-16.333138,-7.058992,0.649278
0.470000,-15.637364,-7.068283,0.713271
0.490000,-14.940101,-7.041226,0.788797
0.510000,-14.248787,-6.993713,0.867071
0.530000,-13.575437,-6.942745,0.948576
0.550000,-12.919928,-6.904501,1.032151
0.570000,-12.287750,-6.881495,1.141947
0.590000,-11.687977,-6.857953,1.279344
0.610000,-11.116574,-6.798319,1.414819
0.630000,-10.579196,-6.722091,1.525574
0.650000,-10.118286,-6.699865,1.643505
0.670000,-9.763248,-6.781903,1.827215
0.690000,-9.517502,-6.926520,2.032700
0.710000,-9.383829,-7.059204,2.219420
0.730000,-9.338957,-7.190143,2.436226
0.750000,-9.365153,-7.383737,2.687202
0.770000,-9.456425,-7.607484,2.937285
0.790000,-9.609569,-7.771029,3.191129
0.810000,-9.816447,-7.899866,3.419416
0.830000,-10.028313,-7.973272,3.617696
0.850000,-10.227703,-7.945026,3.794398
0.870000,-10.414390,-7.834153,3.981607
0.890000,-10.547336,-7.653591,4.159437
0.910000,-10.592810,-7.402656,4.288867
0.930000,-10.560876,-7.109505,4.386393
0.950000,-10.470608,-6.806708,4.483269
0.970000,-10.329507,-6.486124,4.565104
0.990000,-10.149090,-6.153182,4.612106
1.010000,-9.933635,-5.840691,4.623914
1.030000,-9.659454,-5.559271,4.617328
1.050000,-9.320702,-5.311472,4.595237
1.070000,-8.943955,-5.091108,4.564997
1.090000,-8.548688,-4.868399,4.526266
1.110000,-8.121246,-4.645257,4.477946
1.130000,-7.630302,-4.424855,4.429631
1.150000,-7.080412,-4.198414,4.371965
1.170000,-6.505081,-3.956464,4.288233
1.190000,-5.904068,-3.732690,4.147075
1.210000,-5.242220,-3.546040,3.940976
1.230000,-4.552527,-3.360569,3.674629
1.250000,-3.917405,-3.128885,3.373005
1.270000,-3.392551,-2.846582,3.055695
1.290000,-3.002983,-2.551615,2.772452
1.310000,-2.774401,-2.290483,2.550451
1.330000,-2.682195,-2.047363,2.333736
1.350000,-2.642340,-1.801698,2.078723
1.370000,-2.617682,-1.571653,1.758921
1.390000,-2.630605,-1.344087,1.437009
1.410000,-2.789864,-1.258640,1.232637
1.430000,-3.172745,-1.490214,1.155108
1.450000,-3.766848,-1.881877,1.060277
1.470000,-4.729785,-2.031087,0.916908
1.490000,-6.996397,-1.997633,1.068322
1.510000,-15.301744,-5.819091,4.640567
1.530000,-0.051534,-2.490468,-8.158552
1.550000,35.186935,6.445865,-3.484635
1.570000,6.783003,8.935853,-7.328746
1.590000,-17.786304,-0.510704,-2.133986
1.610000,-8.574524,-10.507850,2.044238
1.630000,-3.719439,-3.990910,3.697084
1.650000,-3.064723,0.507536,6.348134
1.670000,-2.856345,-1.282533,7.474754
1.690000,-2.752681,-2.773002,7.672166
1.710000,-2.625163,-3.320547,7.989311
1.730000,-2.073651,-3.948793,8.226734
1.750000,-1.082125,-3.986953,8.428992
1.770000,-0.631592,-3.940516,8.663666
1.790000,-0.336332,-3.742797,8.795221
1.810000,-0.156244,-3.571746,8.865690
1.830000,-0.397951,-3.759937,8.938547
1.850000,-0.782289,-3.995627,8.986163
1.870000,-1.098267,-3.946066,8.942410
1.890000,-1.432922,-3.871165,9.036387
1.910000,-0.977530,-3.884362,9.246362
1.930000,-0.591650,-3.856071,9.387857
1.950000,-0.966734,-3.607228,9.316143
1.970000,-0.991305,-3.833850,9.397523
1.990000,-1.225500,-4.025054,9.326685
2.010000,-1.100523,-4.159009,9.209533
2.030000,-0.994982,-4.328667,9.243785
2.050000,-0.979310,-4.460748,9.272792
2.070000,-0.724138,-4.389122,9.193151
2.090000,-0.561010,-4.355225,9.246085
2.110000,-0.543110,-4.625535,9.204653
2.130000,-0.442619,-4.766983,9.129110
2.150000,-0.307912,-4.738712,9.132863
2.170000,-0.278030,-4.746284,9.179076
2.190000,-0.207642,-4.772097,9.151820
2.210000,-0.173291,-4.797146,9.180753
2.230000,-0.191415,-4.774363,9.223948
2.250000,-0.143999,-4.824543,9.211480
2.270000,-0.062127,-4.901246,9.161010
2.290000,-0.029740,-4.951471,9.156614
2.327000,0.044309,-4.987556,9.122910
2.347000,0.072826,-5.013131,9.130054
2.367000,0.065594,-4.991231,9.162421
2.387000,0.074964,-4.907232,9.178368
2.407000,0.097121,-4.821234,9.230803
2.427000,0.082373,-4.828015,9.260134
2.447000,0.093885,-4.901013,9.246418
2.467000,0.127495,-4.942045,9.222205
2.487000,0.127476,-4.973580,9.233413
2.507000,0.141781,-5.009799,9.227219
2.527000,0.155868,-5.006641,9.231181
2.547000,0.154949,-4.988438,9.250836
2.567000,0.163288,-5.009832,9.254089
2.587000,0.181563,-5.003314,9.239914
2.607000,0.228862,-4.962806,9.234737
2.627000,0.229857,-4.973234,9.250158
2.647000,0.230360,-4.998040,9.252889
2.667000,0.240768,-4.993802,9.243917
2.687000,0.255317,-4.984930,9.253658
2.707000,0.229723,-5.006557,9.269865
2.727000,0.224498,-5.012647,9.270923
2.747000,0.230478,-5.025527,9.263117
2.767000,0.247438,-5.048242,9.256014
2.787000,0.233283,-5.044592,9.268391
2.807000,0.228624,-5.032305,9.277751
2.827000,0.217611,-5.036826,9.286779
2.847000,0.203386,-5.042859,9.298709
2.867000,0.192642,-5.031190,9.308192
2.887000,0.178419,-5.025976,9.314827
2.907000,0.170299,-5.037822,9.307916
2.927000,0.168193,-5.045069,9.312971
2.947000,0.151653,-5.030598,9.323872
2.967000,0.121986,-5.013664,9.337567
2.987000,0.101889,-5.003266,9.336061
3.007000,0.128233,-4.979031,9.328569
3.027000,0.116255,-4.996180,9.333806
3.047000,0.082122,-5.003166,9.340399
3.067000,0.045252,-4.974749,9.348455
3.087000,0.004807,-4.948457,9.360126
3.107000,-0.039155,-4.961196,9.356575
3.127000,-0.061172,-4.992911,9.338387
3.147000,-0.068145,-5.024912,9.313961
3.167000,-0.089658,-5.030539,9.316288
3.187000,-0.117953,-5.017364,9.323835
3.207000,-0.148061,-5.015816,9.324808
3.227000,-0.174373,-5.016201,9.330085
3.247000,-0.196878,-5.018502,9.335290
3.267000,-0.222470,-5.049621,9.337984
3.287000,-0.223976,-5.100451,9.332074
3.307000,-0.210228,-5.119131,9.321903
3.327000,-0.201038,-5.092245,9.319342
3.347000,-0.186820,-5.056101,9.326402
3.367000,-0.175550,-5.027699,9.338783
3.387000,-0.165347,-5.004870,9.348413
3.407000,-0.163248,-4.977685,9.359162
3.427000,-0.168664,-4.946494,9.378699
3.447000,-0.170843,-4.906229,9.396612
3.467000,-0.168862,-4.853396,9.402748
3.487000,-0.174575,-4.827260,9.422818
3.507000,-0.172015,-4.805363,9.436992
3.527000,-0.165345,-4.776915,9.451687
3.547000,-0.163441,-4.748396,9.469001
3.567000,-0.161924,-4.704841,9.493521
3.587000,-0.162445,-4.668807,9.516412
3.607000,-0.156880,-4.655102,9.521358
3.627000,-0.146301,-4.628849,9.527579
3.647000,-0.135323,-4.589919,9.548414
3.667000,-0.118766,-4.552983,9.561747
3.687000,-0.106105,-4.522374,9.558764
3.707000,-0.098669,-4.481236,9.558846
3.727000,-0.081618,-4.432598,9.572912
3.747000,-0.056267,-4.387905,9.594981
3.767000,-0.032189,-4.345416,9.610644
3.787000,-0.020393,-4.290114,9.624955
3.807000,-0.011883,-4.231204,9.642500
3.827000,0.007271,-4.170943,9.656646
3.847000,0.021059,-4.104355,9.670186
3.867000,0.021844,-4.029106,9.693739
3.887000,0.033887,-3.963050,9.714192
3.907000,0.053939,-3.912477,9.718583
3.927000,0.074007,-3.874414,9.722903
3.947000,0.081102,-3.862342,9.740104
3.967000,0.084737,-3.852209,9.756741
3.987000,0.094519,-3.824806,9.763135
4.007000,0.101447,-3.782592,9.775147
4.027000,0.103687,-3.747926,9.799673
4.047000,0.111628,-3.721345,9.813196
4.067000,0.129039,-3.685065,9.812078
4.087000,0.133560,-3.653476,9.823514
4.107000,0.137635,-3.636903,9.845946
4.127000,0.148776,-3.619524,9.854301
4.147000,0.162443,-3.588998,9.857846
4.167000,0.167993,-3.561834,9.869908
4.187000,0.170920,-3.545561,9.887255
4.207000,0.183061,-3.524197,9.895578
4.227000,0.194353,-3.492380,9.898359
4.247000,0.198585,-3.459613,9.909585
4.267000,0.205049,-3.442325,9.923651
4.287000,0.219163,-3.426822,9.929295
4.307000,0.226093,-3.401909,9.935150
4.339000,0.232951,-3.379289,9.948091
4.359000,0.239797,-3.357826,9.956511
4.379000,0.247705,-3.330202,9.962889
4.399000,0.254467,-3.298000,9.974539
4.419000,0.257209,-3.278093,9.986834
4.439000,0.264829,-3.263055,9.996708
4.459000,0.274352,-3.247056,10.003232
4.479000,0.281649,-3.229139,10.007691
4.499000,0.285604,-3.212343,10.015523
4.519000,0.291340,-3.193918,10.025961
4.539000,0.300198,-3.184342,10.033912
4.559000,0.310955,-3.174548,10.038145
4.579000,0.319103,-3.163362,10.041101
4.599000,0.327178,-3.153767,10.047935
4.619000,0.332681,-3.147064,10.055284
4.639000,0.340789,-3.135520,10.062541
4.659000,0.346998,-3.121890,10.068270
4.679000,0.353879,-3.106998,10.074411
4.699000,0.359931,-3.087716,10.080717
4.719000,0.369803,-3.075818,10.087026
4.739000,0.374180,-3.066941,10.093894
4.759000,0.377298,-3.054496,10.101869
4.779000,0.386920,-3.038979,10.106359
4.799000,0.392494,-3.024934,10.112731
4.819000,0.396917,-3.014955,10.120354
4.839000,0.401778,-3.003240,10.125975
4.859000,0.410973,-2.991934,10.129649
4.879000,0.417761,-2.983405,10.134511
4.899000,0.421302,-2.973510,10.141860
4.919000,0.427275,-2.961538,10.147890
4.939000,0.433609,-2.951298,10.151659
4.959000,0.438900,-2.942471,10.156489
4.979000,0.443364,-2.935750,10.163159
4.999000,0.449657,-2.928059,10.167998
5.019000,0.456524,-2.917518,10.170615
5.039000,0.460870,-2.908715,10.176073
5.059000,0.465926,-2.901912,10.183204
5.079000,0.470154,-2.897126,10.187496
5.099000,0.476604,-2.889758,10.190971
5.119000,0.481598,-2.881181,10.195733
5.139000,0.485976,-2.874012,10.201251
5.159000,0.491363,-2.866771,10.205445
5.179000,0.496721,-2.860577,10.209190
5.199000,0.501570,-2.854643,10.214287
5.219000,0.506131,-2.850842,10.218494
5.239000,0.512203,-2.843624,10.220433
5.259000,0.517639,-2.839507,10.224819
5.279000,0.522423,-2.835024,10.230693
5.299000,0.527039,-2.831515,10.234760
5.319000,0.531968,-2.827545,10.236154
5.339000,0.536033,-2.823928,10.240598
5.359000,0.541183,-2.820183,10.245547
5.379000,0.547168,-2.815965,10.249035
5.399000,0.551512,-2.812497,10.251052
5.419000,0.556628,-2.808645,10.254533
5.439000,0.561237,-2.803681,10.259703
5.459000,0.566590,-2.798953,10.263336
5.479000,0.570501,-2.794009,10.266550
5.499000,0.575306,-2.790323,10.269588
5.519000,0.579609,-2.787644,10.273506
5.539000,0.583318,-2.785047,10.277911
5.559000,0.587109,-2.781801,10.281435
5.579000,0.592563,-2.777039,10.284947
5.599000,0.598225,-2.774808,10.288041
5.619000,0.601676,-2.772648,10.290960
5.639000,0.605882,-2.770609,10.293922
5.659000,0.610645,-2.766100,10.296616
5.679000,0.616103,-2.764292,10.300263
5.699000,0.619591,-2.763793,10.303779
5.719000,0.623977,-2.761715,10.306206
5.739000,0.628607,-2.759076,10.307914
5.759000,0.633765,-2.756535,10.311353
5.779000,0.637890,-2.755370,10.315475
5.799000,0.641399,-2.752616,10.317761
5.819000,0.645927,-2.749451,10.319689
5.839000,0.651223,-2.747831,10.322962
5.859000,0.655533,-2.746090,10.326681
5.879000,0.659392,-2.744558,10.329334
5.899000,0.663955,-2.742587,10.331266
5.919000,0.669789,-2.739510,10.333394
5.939000,0.673889,-2.737685,10.336818
5.959000,0.676799,-2.736142,10.339752
5.979000,0.681188,-2.734494,10.342370
5.999000,0.686132,-2.732456,10.344267
6.019000,0.690044,-2.730486,10.346744
6.039000,0.694923,-2.727961,10.349794
6.059000,0.698365,-2.726275,10.351809
6.079000,0.702897,-2.725349,10.353779
6.099000,0.707145,-2.724240,10.356304
6.119000,0.712021,-2.721730,10.358948
6.139000,0.716057,-2.719460,10.361374
6.159000,0.720102,-2.717596,10.363441
6.179000,0.724249,-2.717594,10.365486
6.199000,0.728475,-2.715509,10.367536
6.219000,0.732467,-2.713446,10.369756
6.239000,0.736203,-2.710349,10.370637
6.259000,0.740429,-2.707930,10.373281
6.279000,0.745259,-2.706301,10.377048
6.299000,0.747671,-2.704233,10.379796
6.319000,0.750920,-2.701085,10.381343
