accel_time_list,accel_x_list,accel_y_list,accel_z_list
0.410000,-11.638214,-4.031836,2.925714
0.430000,-11.632229,-4.258088,2.832341
0.450000,-11.449058,-4.368160,2.683714
0.470000,-11.156919,-4.429221,2.568940
0.490000,-10.871149,-4.454758,2.462359
0.510000,-10.621718,-4.411550,2.321034
0.530000,-10.447938,-4.303506,2.187712
0.550000,-10.406250,-4.200869,2.133905
0.570000,-10.387334,-4.161930,2.123202
0.590000,-10.333847,-4.138147,2.111007
0.610000,-10.259698,-4.083399,2.080161
0.630000,-10.189768,-3.989039,2.018558
0.650000,-10.156596,-3.893632,1.948285
0.670000,-10.132560,-3.826848,1.892753
0.690000,-10.088401,-3.787588,1.853650
0.710000,-10.030434,-3.744936,1.819121
0.730000,-9.991523,-3.683978,1.772022
0.750000,-10.006716,-3.605888,1.712178
0.770000,-10.054683,-3.515839,1.656526
0.790000,-10.094379,-3.415900,1.615827
0.810000,-10.112402,-3.307583,1.596796
0.830000,-10.107547,-3.195765,1.592956
0.850000,-10.077358,-3.075588,1.591806
0.870000,-10.022204,-2.962450,1.588524
0.890000,-9.952589,-2.871184,1.572887
0.910000,-9.895054,-2.803304,1.545822
0.930000,-9.854694,-2.739944,1.514181
0.950000,-9.829152,-2.664518,1.485636
0.970000,-9.814452,-2.566907,1.457401
0.990000,-9.812201,-2.454370,1.434636
1.010000,-9.808390,-2.330636,1.416189
1.030000,-9.782406,-2.195007,1.402419
1.050000,-9.734198,-2.051548,1.391570
1.070000,-9.676881,-1.910461,1.384157
1.090000,-9.618749,-1.783118,1.377864
1.110000,-9.557331,-1.670149,1.372304
1.130000,-9.487753,-1.566409,1.365861
1.150000,-9.410953,-1.469476,1.368097
1.170000,-9.341474,-1.387377,1.383727
1.190000,-9.286340,-1.323927,1.406773
1.210000,-9.241257,-1.287602,1.431349
1.230000,-9.202588,-1.278409,1.455678
1.250000,-9.173370,-1.283926,1.480837
1.270000,-9.152022,-1.291699,1.508446
1.290000,-9.136065,-1.295077,1.541181
1.310000,-9.123729,-1.298857,1.581370
1.330000,-9.117716,-1.308756,1.627236
1.350000,-9.120705,-1.326879,1.679584
1.370000,-9.134074,-1.344674,1.739733
1.390000,-9.153547,-1.350038,1.797475
1.410000,-9.168475,-1.339314,1.851788
1.430000,-9.182698,-1.317476,1.905137
1.450000,-9.222561,-1.292828,1.961528
1.470000,-9.335460,-1.272944,2.026384
1.490000,-9.503811,-1.262052,2.102046
1.510000,-9.624290,-1.264180,2.168781
1.530000,-9.639184,-1.279486,2.207226
1.550000,-9.589954,-1.303143,2.228036
1.570000,-9.522699,-1.322898,2.245900
1.590000,-9.470276,-1.331552,2.271609
1.610000,-9.444205,-1.337386,2.301776
1.630000,-9.442932,-1.352945,2.328789
1.650000,-9.470397,-1.375911,2.349813
1.670000,-9.519031,-1.389349,2.357790
1.690000,-9.571074,-1.384008,2.353392
1.710000,-9.618482,-1.365461,2.345912
1.730000,-9.663943,-1.340451,2.344265
1.750000,-9.705852,-1.312169,2.346843
1.770000,-9.729197,-1.277790,2.347179
1.790000,-9.729962,-1.236687,2.338545
1.810000,-9.712194,-1.195270,2.322649
1.830000,-9.684567,-1.164131,2.306922
1.850000,-9.657367,-1.143734,2.295521
1.870000,-9.630733,-1.123621,2.282414
1.890000,-9.586344,-1.095830,2.265793
1.910000,-9.522513,-1.066011,2.248070
1.930000,-9.456716,-1.044120,2.232763
1.950000,-9.404079,-1.029559,2.217717
1.970000,-9.367650,-1.014098,2.198975
1.990000,-9.336007,-0.994235,2.176885
2.010000,-9.303494,-0.972993,2.155012
2.030000,-9.274510,-0.959219,2.135889
2.050000,-9.255116,-0.952595,2.115144
2.070000,-9.276177,-0.950242,2.083276
2.090000,-9.343353,-0.953789,2.048822
2.110000,-9.385732,-0.962079,2.025598
2.130000,-9.379806,-0.972321,2.013219
2.150000,-9.358962,-0.983984,2.007038
2.170000,-9.338897,-0.994657,2.001256
2.190000,-9.317922,-1.003306,1.997782
2.210000,-9.296658,-1.012476,1.997281
2.230000,-9.283620,-1.023476,1.997312
2.250000,-9.289368,-1.029932,1.991996
2.270000,-9.312786,-1.028121,1.981285
2.290000,-9.341480,-1.020299,1.974051
2.310000,-9.360766,-1.015134,1.974182
2.330000,-9.371980,-1.019323,1.979698
2.350000,-9.370301,-1.030432,1.984734
2.370000,-9.349829,-1.045418,1.985279
2.390000,-9.315533,-1.067113,1.984056
2.426000,-9.280998,-1.100404,1.992036
2.446000,-9.250406,-1.131898,2.006849
2.466000,-9.224697,-1.156807,2.025181
2.486000,-9.205971,-1.175876,2.044752
2.506000,-9.194838,-1.190798,2.068166
2.526000,-9.189781,-1.202371,2.096806
2.546000,-9.193259,-1.210298,2.130231
2.568000,-9.208632,-1.216317,2.166940
2.588000,-9.230627,-1.224012,2.204993
2.608000,-9.250088,-1.235651,2.240565
2.628000,-9.277258,-1.253052,2.273577
2.648000,-9.323198,-1.275342,2.310600
2.668000,-9.372999,-1.298143,2.349949
2.688000,-9.418081,-1.317707,2.389039
2.708000,-9.447281,-1.333677,2.425075
2.728000,-9.452756,-1.345021,2.456821
2.748000,-9.435218,-1.349894,2.488058
2.768000,-9.408766,-1.347685,2.520097
2.788000,-9.386734,-1.344716,2.552003
2.808000,-9.376198,-1.347935,2.579242
2.828000,-9.374285,-1.357610,2.599090
2.848000,-9.377242,-1.369771,2.610804
2.868000,-9.384761,-1.381047,2.615649
2.888000,-9.399837,-1.388238,2.618049
2.908000,-9.430857,-1.391887,2.620679
2.928000,-9.474800,-1.390653,2.622373
2.948000,-9.515415,-1.384650,2.619751
2.968000,-9.541476,-1.377485,2.612522
2.988000,-9.554032,-1.371751,2.601093
3.008000,-9.553933,-1.366822,2.587277
3.028000,-9.543323,-1.362154,2.575653
3.048000,-9.528776,-1.355822,2.564878
3.068000,-9.512592,-1.349678,2.552587
3.088000,-9.488946,-1.344408,2.537696
3.108000,-9.456533,-1.340644,2.520063
3.128000,-9.421443,-1.337964,2.503614
3.148000,-9.392395,-1.334468,2.488444
3.168000,-9.371246,-1.327779,2.473339
3.188000,-9.346172,-1.318054,2.457541
3.208000,-9.314605,-1.307679,2.443243
3.228000,-9.288736,-1.299085,2.430020
3.248000,-9.271313,-1.293330,2.418128
3.268000,-9.253679,-1.288755,2.404212
3.288000,-9.249412,-1.285304,2.386078
3.308000,-9.270180,-1.284920,2.367736
3.328000,-9.289385,-1.286575,2.353850
3.348000,-9.293116,-1.289798,2.345155
3.368000,-9.288178,-1.294655,2.339300
3.388000,-9.276705,-1.300415,2.337326
3.408000,-9.257109,-1.306395,2.340986
3.428000,-9.229921,-1.310425,2.347287
3.448000,-9.196458,-1.311467,2.350872
3.468000,-9.167883,-1.309055,2.350969
3.488000,-9.163063,-1.304834,2.352744
3.508000,-9.184244,-1.300635,2.359024
3.528000,-9.216899,-1.297908,2.369873
3.548000,-9.243213,-1.299520,2.383852
3.568000,-9.259404,-1.304676,2.397820
3.588000,-9.266311,-1.312288,2.409867
3.608000,-9.258902,-1.321957,2.421608
3.628000,-9.237074,-1.334815,2.436119
3.648000,-9.209123,-1.349164,2.454505
3.668000,-9.183834,-1.361453,2.475672
3.688000,-9.162811,-1.369637,2.497533
3.708000,-9.143802,-1.373427,2.519728
3.728000,-9.127524,-1.374525,2.542660
3.748000,-9.117433,-1.376094,2.566120
3.768000,-9.112286,-1.380504,2.588900
3.788000,-9.112855,-1.387119,2.611670
3.808000,-9.121677,-1.394296,2.633764
3.828000,-9.135057,-1.402223,2.654502
3.848000,-9.147729,-1.411544,2.671706
3.868000,-9.174732,-1.422351,2.688054
3.888000,-9.214646,-1.433279,2.703830
3.908000,-9.259547,-1.445243,2.719100
3.928000,-9.298532,-1.458320,2.731553
3.948000,-9.323581,-1.471506,2.739161
3.968000,-9.337780,-1.482614,2.745925
3.988000,-9.340890,-1.489465,2.752486
4.008000,-9.332111,-1.492686,2.758974
4.028000,-9.317409,-1.495563,2.764503
4.048000,-9.299107,-1.498947,2.766304
4.068000,-9.282832,-1.505434,2.769263
4.088000,-9.267550,-1.510922,2.765202
4.108000,-9.262798,-1.518917,2.756812
4.128000,-9.273388,-1.520990,2.753343
4.148000,-9.293887,-1.518541,2.750267
4.168000,-9.320123,-1.518559,2.745848
4.188000,-9.342765,-1.522551,2.739581
4.208000,-9.354012,-1.523917,2.731275
4.228000,-9.355459,-1.520266,2.721245
4.248000,-9.347223,-1.513491,2.709957
4.268000,-9.329537,-1.507071,2.698091
4.288000,-9.305319,-1.502941,2.685258
4.308000,-9.281202,-1.501870,2.671485
4.328000,-9.258142,-1.503707,2.656913
4.348000,-9.234930,-1.507249,2.640948
4.368000,-9.213035,-1.511737,2.624199
4.388000,-9.194077,-1.515845,2.607227
4.408000,-9.177483,-1.518571,2.591417
4.444000,-9.163754,-1.514159,2.575618
4.464000,-9.153712,-1.508834,2.561566
4.484000,-9.144758,-1.502389,2.550151
4.504000,-9.137706,-1.494069,2.536820
4.524000,-9.149108,-1.484754,2.521518
4.544000,-9.177731,-1.476706,2.509616
4.564000,-9.200006,-1.471013,2.505120
4.584000,-9.202325,-1.465808,2.507113
4.604000,-9.184381,-1.459601,2.514532
4.624000,-9.150743,-1.452547,2.525743
4.644000,-9.110551,-1.446832,2.538415
4.664000,-9.073092,-1.444886,2.549525
4.684000,-9.043111,-1.444491,2.558329
4.704000,-9.026597,-1.440963,2.567413
4.724000,-9.030898,-1.431677,2.580951
4.744000,-9.056931,-1.415230,2.599983
4.764000,-9.088798,-1.394206,2.624891
4.784000,-9.110679,-1.373297,2.652828
4.804000,-9.120370,-1.356930,2.679078
4.824000,-9.119873,-1.349873,2.699554
4.844000,-9.111979,-1.352080,2.714933
4.864000,-9.102031,-1.360251,2.728697
4.884000,-9.094038,-1.371069,2.743797
4.904000,-9.085022,-1.382617,2.759570
4.924000,-9.074374,-1.391824,2.772359
4.944000,-9.063606,-1.397226,2.782339
4.964000,-9.054225,-1.399511,2.789822
4.984000,-9.048706,-1.401389,2.794844
5.004000,-9.050754,-1.405547,2.797544
5.024000,-9.059020,-1.410694,2.797898
5.044000,-9.068543,-1.415788,2.793943
5.064000,-9.078012,-1.421718,2.785497
5.084000,-9.092867,-1.430724,2.773982
5.104000,-9.114720,-1.441556,2.760904
5.124000,-9.134355,-1.450963,2.745740
5.144000,-9.143312,-1.457785,2.724388
5.164000,-9.148848,-1.464324,2.698287
5.184000,-9.154232,-1.471732,2.667671
5.204000,-9.152773,-1.478012,2.629842
5.224000,-9.147128,-1.483295,2.585788
5.244000,-9.148467,-1.488789,2.532780
5.264000,-9.155433,-1.494659,2.468345
5.284000,-9.160076,-1.500733,2.397021
5.304000,-9.164947,-1.507776,2.326831
5.324000,-9.172743,-1.514941,2.259494
5.344000,-9.177336,-1.524356,2.193470
5.364000,-9.176241,-1.538705,2.124629
5.384000,-9.173611,-1.557028,2.050868
5.404000,-9.173172,-1.573540,1.972935
5.424000,-9.171187,-1.584739,1.894602
5.444000,-9.163988,-1.593433,1.820492
5.464000,-9.156361,-1.602685,1.757394
5.484000,-9.154387,-1.610840,1.708617
5.504000,-9.160095,-1.616710,1.672712
5.524000,-9.170561,-1.620870,1.644017
5.544000,-9.181885,-1.627693,1.617723
5.564000,-9.193101,-1.638878,1.593190
5.584000,-9.208678,-1.651746,1.572692
5.604000,-9.231733,-1.663193,1.555771
5.624000,-9.264690,-1.673089,1.536438
5.644000,-9.304595,-1.683413,1.514257
5.664000,-9.332973,-1.693705,1.493569
5.684000,-9.346063,-1.700375,1.477353
5.704000,-9.354104,-1.699891,1.466812
5.724000,-9.358990,-1.693594,1.461103
5.744000,-9.357677,-1.685086,1.458570
5.764000,-9.349879,-1.677668,1.456880
5.784000,-9.338900,-1.672288,1.453840
5.804000,-9.327370,-1.666075,1.447518
5.824000,-9.316075,-1.658082,1.438451
5.844000,-9.302614,-1.649114,1.428006
5.864000,-9.287489,-1.639734,1.418703
5.884000,-9.275393,-1.631549,1.408910
5.904000,-9.264737,-1.623900,1.397676
5.924000,-9.248397,-1.615203,1.389166
5.944000,-9.228054,-1.605922,1.387117
5.964000,-9.208261,-1.598363,1.386805
5.984000,-9.188155,-1.592243,1.384668
6.004000,-9.166821,-1.585443,1.384257
6.024000,-9.147687,-1.575167,1.390029
6.044000,-9.131895,-1.561234,1.402462
6.064000,-9.116209,-1.544497,1.418847
6.084000,-9.100573,-1.526969,1.437636
6.104000,-9.087744,-1.510502,1.458505
6.124000,-9.079201,-1.495230,1.482505
6.144000,-9.071811,-1.482049,1.510288
6.164000,-9.064466,-1.472544,1.542087
6.184000,-9.057935,-1.466677,1.577176
6.204000,-9.051777,-1.464867,1.613239
6.224000,-9.047055,-1.465948,1.648726
6.244000,-9.047482,-1.469413,1.682860
6.264000,-9.055994,-1.474183,1.717399
6.284000,-9.069549,-1.479433,1.753460
6.304000,-9.083207,-1.483266,1.790582
6.324000,-9.095618,-1.484642,1.827521
6.344000,-9.123096,-1.485238,1.867100
6.364000,-9.167355,-1.485828,1.910709
6.384000,-9.218724,-1.487514,1.956475
6.404000,-9.260842,-1.491744,1.999537
6.424000,-9.277054,-1.498758,2.034851
6.465000,-9.255671,-1.505079,2.059350
6.485000,-9.228553,-1.508487,2.084404
6.505000,-9.211234,-1.512149,2.112773
6.525000,-9.216758,-1.519413,2.144136
6.545000,-9.242366,-1.530675,2.173794
6.565000,-9.281104,-1.543428,2.194920
6.585000,-9.316064,-1.553588,2.205530
6.605000,-9.343233,-1.558929,2.212355
6.625000,-9.368458,-1.559357,2.219378
6.645000,-9.386724,-1.555783,2.226005
6.665000,-9.394591,-1.550544,2.228648
6.685000,-9.393780,-1.545645,2.225371
6.705000,-9.387647,-1.542159,2.217934
6.725000,-9.376990,-1.540337,2.208757
6.745000,-9.366402,-1.539562,2.202833
6.765000,-9.357396,-1.538747,2.200168
6.785000,-9.347936,-1.538252,2.197038
6.805000,-9.339026,-1.538910,2.190726
6.825000,-9.332458,-1.540879,2.182392
6.845000,-9.326673,-1.541607,2.172370
6.865000,-9.322015,-1.536606,2.159765
6.885000,-9.316792,-1.526363,2.145586
6.905000,-9.306668,-1.512465,2.131086
6.925000,-9.293097,-1.498274,2.119339
6.945000,-9.286545,-1.485661,2.114139
6.965000,-9.299296,-1.475928,2.111283
6.985000,-9.315242,-1.465407,2.108799
7.005000,-9.310124,-1.452620,2.111037
7.025000,-9.284807,-1.437830,2.119212
7.045000,-9.247706,-1.421465,2.127765
7.065000,-9.200433,-1.404641,2.135154
7.085000,-9.145046,-1.389732,2.143214
7.105000,-9.086274,-1.381006,2.152371
7.125000,-9.034702,-1.379598,2.158944
7.145000,-9.003687,-1.381532,2.162461
7.165000,-9.000280,-1.382082,2.168110
7.185000,-9.013892,-1.378413,2.181901
7.205000,-9.025531,-1.371955,2.202558
7.225000,-9.032704,-1.368626,2.222924
7.245000,-9.043667,-1.369832,2.243482
7.265000,-9.052460,-1.371313,2.262783
7.285000,-9.051259,-1.368996,2.279387
7.305000,-9.042520,-1.364045,2.295105
7.325000,-9.032458,-1.359790,2.312690
7.345000,-9.022172,-1.359288,2.330258
7.365000,-9.010824,-1.363484,2.346443
7.385000,-9.001322,-1.369841,2.362328
7.405000,-8.997724,-1.377068,2.379649
7.425000,-9.001007,-1.385491,2.396299
7.445000,-9.013190,-1.395387,2.411778
7.465000,-9.039668,-1.406764,2.428850
7.485000,-9.073553,-1.418625,2.449569
7.505000,-9.100194,-1.431924,2.468353
7.525000,-9.133876,-1.447676,2.485118
7.545000,-9.188833,-1.466671,2.502735
7.565000,-9.256712,-1.489665,2.523242
7.585000,-9.309248,-1.513386,2.543239
7.605000,-9.325190,-1.531460,2.557893
7.625000,-9.314026,-1.541213,2.570473
7.645000,-9.291454,-1.543518,2.586740
7.665000,-9.265975,-1.542017,2.607812
7.685000,-9.241119,-1.543428,2.630581
7.705000,-9.224096,-1.552199,2.651175
7.725000,-9.221416,-1.566581,2.668926
7.745000,-9.230641,-1.582973,2.681909
7.765000,-9.247312,-1.598076,2.688782
7.785000,-9.269787,-1.608647,2.692681
7.805000,-9.298917,-1.613079,2.696334
7.825000,-9.329686,-1.610643,2.698917
7.845000,-9.355931,-1.601815,2.701073
7.865000,-9.374741,-1.588886,2.702817
7.885000,-9.385709,-1.575056,2.702701
7.905000,-9.386269,-1.562346,2.698876
7.925000,-9.375604,-1.552061,2.691891
7.945000,-9.356812,-1.545303,2.681989
7.965000,-9.333701,-1.542444,2.673255
7.985000,-9.313577,-1.542534,2.665759
8.005000,-9.298396,-1.542000,2.656364
8.025000,-9.278887,-1.536780,2.643554
8.045000,-9.255720,-1.527254,2.629367
8.065000,-9.235292,-1.514807,2.617649
8.085000,-9.218346,-1.500592,2.609817
8.105000,-9.200158,-1.485227,2.604268
8.125000,-9.181012,-1.469298,2.594213
8.145000,-9.183961,-1.453384,2.576627
8.165000,-9.215543,-1.442106,2.560158
8.185000,-9.237948,-1.435681,2.553432
8.205000,-9.229088,-1.430925,2.553586
8.225000,-9.206375,-1.425044,2.553459
8.245000,-9.183863,-1.419125,2.549907
8.265000,-9.171642,-1.413840,2.545337
8.285000,-9.171719,-1.411098,2.540446
8.305000,-9.174325,-1.411065,2.536421
8.325000,-9.178331,-1.410458,2.533669
8.345000,-9.193752,-1.404877,2.530945
8.365000,-9.218377,-1.395018,2.529712
8.385000,-9.238524,-1.383845,2.530266
8.405000,-9.248215,-1.375010,2.531219
8.425000,-9.249441,-1.371052,2.531265
8.445000,-9.240913,-1.371060,2.528795
8.482000,-9.223651,-1.376527,2.521884
8.502000,-9.208979,-1.384956,2.515616
8.522000,-9.199206,-1.394666,2.510552
8.542000,-9.194170,-1.404182,2.506404
8.562000,-9.192261,-1.411928,2.502396
8.582000,-9.190932,-1.418279,2.498309
8.602000,-9.186354,-1.424662,2.495205
8.622000,-9.179667,-1.432514,2.493425
8.642000,-9.175216,-1.442274,2.493965
8.662000,-9.174212,-1.454212,2.496607
8.682000,-9.178512,-1.469262,2.502861
8.702000,-9.188930,-1.488567,2.511591
8.722000,-9.202156,-1.510360,2.522101
8.742000,-9.216883,-1.531026,2.533200
8.762000,-9.247179,-1.548660,2.549407
8.782000,-9.281162,-1.562574,2.569666
8.802000,-9.304892,-1.575823,2.589867
8.822000,-9.321939,-1.589130,2.610216
8.842000,-9.326154,-1.599719,2.630599
8.862000,-9.313902,-1.606131,2.650362
8.882000,-9.290598,-1.611833,2.667155
8.902000,-9.265076,-1.620806,2.680418
8.922000,-9.241994,-1.633424,2.690707
8.942000,-9.222627,-1.647568,2.698920
8.962000,-9.212683,-1.663079,2.705619
8.982000,-9.219455,-1.680972,2.711622
9.002000,-9.242136,-1.700603,2.717137
9.022000,-9.272998,-1.719222,2.720213
9.042000,-9.307967,-1.733609,2.719987
9.062000,-9.340924,-1.741891,2.716990
9.082000,-9.370192,-1.744225,2.712448
9.102000,-9.393689,-1.740764,2.706052
9.122000,-9.408697,-1.730970,2.698449
9.142000,-9.416903,-1.715217,2.690211
9.162000,-9.422634,-1.696868,2.682487
9.182000,-9.426052,-1.681647,2.674983
9.202000,-9.426750,-1.671773,2.665974
9.222000,-9.426678,-1.666524,2.655020
9.242000,-9.427040,-1.665158,2.641998
9.262000,-9.426323,-1.667684,2.627477
9.282000,-9.423206,-1.672986,2.612072
9.302000,-9.421985,-1.677229,2.595227
9.322000,-9.422419,-1.677767,2.577547
9.342000,-9.416939,-1.673630,2.560316
9.362000,-9.402025,-1.665944,2.543255
9.382000,-9.389283,-1.655941,2.525151
9.402000,-9.388828,-1.647066,2.507365
9.422000,-9.380075,-1.639957,2.491708
9.442000,-9.362079,-1.633709,2.477487
9.462000,-9.347175,-1.629965,2.465590
9.482000,-9.328103,-1.630042,2.459382
9.502000,-9.294585,-1.633805,2.459529
9.522000,-9.250355,-1.637315,2.462443
9.542000,-9.202692,-1.634804,2.460481
9.562000,-9.165009,-1.624873,2.453329
9.582000,-9.152487,-1.610683,2.445334
9.602000,-9.165543,-1.594911,2.443502
9.622000,-9.185366,-1.578890,2.449205
9.642000,-9.197729,-1.561857,2.458229
9.662000,-9.204144,-1.544203,2.467080
9.682000,-9.209329,-1.529838,2.476317
9.702000,-9.210398,-1.521651,2.484386
9.722000,-9.206599,-1.520632,2.490374
9.742000,-9.202097,-1.523238,2.497265
9.762000,-9.199346,-1.524909,2.507143
9.782000,-9.195556,-1.523355,2.518799
9.802000,-9.188869,-1.521409,2.531157
9.822000,-9.183979,-1.520584,2.544367
9.842000,-9.181482,-1.518403,2.559311
9.862000,-9.175992,-1.512891,2.575428
9.882000,-9.169065,-1.508201,2.591708
9.902000,-9.166548,-1.507460,2.608077
9.922000,-9.170072,-1.510438,2.624034
9.942000,-9.178484,-1.514583,2.639570
9.962000,-9.192758,-1.517873,2.653867
9.982000,-9.213276,-1.520339,2.666756
10.002000,-9.235888,-1.523404,2.678222
10.022000,-9.253496,-1.527084,2.687347
10.042000,-9.277830,-1.532475,2.695855
10.062000,-9.306396,-1.539584,2.702413
10.082000,-9.327291,-1.549255,2.703148
10.102000,-9.349378,-1.561847,2.700137
10.122000,-9.375533,-1.573833,2.696167
10.142000,-9.391880,-1.581893,2.691111
10.162000,-9.389114,-1.584510,2.683130
10.182000,-9.374222,-1.582120,2.671739
10.202000,-9.360896,-1.579850,2.657448
10.222000,-9.359014,-1.581098,2.640198
10.242000,-9.373775,-1.586261,2.621041
10.262000,-9.404391,-1.594651,2.601225
10.282000,-9.441951,-1.604442,2.582022
10.302000,-9.473979,-1.613082,2.561934
10.322000,-9.497536,-1.616273,2.540478
10.342000,-9.512248,-1.611075,2.520317
10.362000,-9.516392,-1.596665,2.505376
10.382000,-9.515265,-1.574377,2.494330
10.402000,-9.511896,-1.548697,2.484960
10.422000,-9.442891,-1.395352,2.471416
10.442000,-9.443997,-1.386696,2.453371
10.462000,-9.417931,-1.400229,2.430491
