gyro_time_list,gyro_x_list,gyro_y_list,gyro_z_list
0.429,-2.540187,2.329149,2.882058
0.449,-2.646972,2.397429,2.98871
0.469,-2.787938,2.496715,3.094707
0.489,-2.950207,2.603382,3.191403
0.509,-3.123351,2.688022,3.276813
0.529,-3.296348,2.745453,3.35234
0.549,-3.451347,2.777317,3.415567
0.569,-3.565735,2.780157,3.460684
0.589,-3.613237,2.749507,3.481392
0.609,-3.576684,2.687349,3.47005
0.629,-3.458302,2.601105,3.422599
0.649,-3.272603,2.501247,3.335474
0.669,-3.034661,2.395375,3.210402
0.689,-2.765963,2.288908,3.052562
0.709,-2.493882,2.184623,2.869828
0.729,-2.251402,2.079518,2.67079
0.749,-2.054431,1.97,2.466853
0.769,-1.908461,1.851205,2.269956
0.789,-1.842987,1.721029,2.088301
0.809,-1.85552,1.587498,1.922094
0.829,-1.900769,1.45453,1.77036
0.849,-1.942958,1.321399,1.63256
0.869,-1.966875,1.191121,1.503968
0.889,-1.961664,1.066179,1.38098
0.909,-1.925084,0.949049,1.26489
0.929,-1.867648,0.839427,1.155305
0.949,-1.798547,0.736645,1.051456
0.969,-1.719576,0.642744,0.954816
0.989,-1.628276,0.558074,0.865838
1.009,-1.525791,0.477577,0.782488
1.029,-1.418761,0.398879,0.703281
1.049,-1.316364,0.323811,0.626372
1.069,-1.218793,0.254414,0.550818
1.089,-1.121574,0.190058,0.477372
1.109,-1.028643,0.129402,0.407046
1.129,-0.945466,0.07186,0.340763
1.149,-0.870029,0.017895,0.278873
1.169,-0.797926,-0.032898,0.22141
1.189,-0.731579,-0.080361,0.168672
1.209,-0.674091,-0.124562,0.120249
1.229,-0.623762,-0.165294,0.075322
1.249,-0.576298,-0.201766,0.033322
1.269,-0.53097,-0.233145,-0.0052
1.289,-0.488507,-0.260022,-0.040265
1.309,-0.448424,-0.283858,-0.071986
1.329,-0.411288,-0.305599,-0.100326
1.349,-0.378129,-0.323859,-0.124868
1.369,-0.350437,-0.338123,-0.14564
1.389,-0.327313,-0.350468,-0.163324
1.409,-0.306426,-0.361428,-0.178166
1.429,-0.287,-0.369363,-0.190432
1.449,-0.26777,-0.373543,-0.200529
1.469,-0.248232,-0.375974,-0.208586
1.489,-0.228583,-0.379257,-0.21489
1.509,-0.209462,-0.383766,-0.220396
1.529,-0.19278,-0.387805,-0.225843
1.549,-0.178211,-0.390303,-0.231062
1.569,-0.164083,-0.392423,-0.235548
1.589,-0.149789,-0.396532,-0.239631
1.609,-0.135703,-0.40296,-0.242848
1.629,-0.124685,-0.411424,-0.246069
1.649,-0.116828,-0.422,-0.250262
1.669,-0.108801,-0.435211,-0.256413
1.689,-0.097927,-0.450685,-0.26533
1.709,-0.083786,-0.4658,-0.276575
1.729,-0.067739,-0.479914,-0.289651
1.749,-0.051216,-0.493915,-0.304063
1.769,-0.032813,-0.508628,-0.31936
1.789,-0.010873,-0.523177,-0.334972
1.809,0.013991,-0.536421,-0.350191
1.829,0.038073,-0.549228,-0.363723
1.849,0.056383,-0.561208,-0.374417
1.869,0.063293,-0.572921,-0.381502
1.889,0.055108,-0.585096,-0.388908
1.909,0.036732,-0.589832,-0.396003
1.929,0.020011,-0.584869,-0.403529
1.949,0.011226,-0.591528,-0.412635
1.969,0.004726,-0.612078,-0.418025
1.989,0.003289,-0.640172,-0.422887
2.009,-0.00487,-0.671907,-0.444596
2.029,-0.014457,-0.697761,-0.489501
2.049,0.025779,-0.707501,-0.542875
2.069,0.099618,-0.679204,-0.602437
2.089,0.084495,-0.608483,-0.648935
2.109,0.017671,-0.507007,-0.620847
2.129,0.029681,-0.442555,-0.554541
2.149,0.034876,-0.434296,-0.498947
2.169,0.008623,-0.549932,-0.566619
2.189,0.127558,-0.675337,-0.68416
2.209,0.258579,-0.694545,-0.690935
2.229,0.358951,-0.678089,-0.522978
2.249,0.184668,-0.748927,-0.387623
2.269,-0.006121,-0.878585,-0.287205
2.289,-0.151168,-0.924279,-0.278009
2.309,-0.087684,-0.872158,-0.312005
2.329,-0.00475,-0.81647,-0.322633
2.349,-0.016283,-0.773108,-0.335538
2.369,-0.095038,-0.719687,-0.338845
2.389,-0.150452,-0.657019,-0.327809
2.409,-0.158109,-0.59204,-0.304704
2.739,-0.190395,-0.598712,-0.290185
2.759,-0.230445,-0.596929,-0.276805
2.779,-0.272913,-0.587411,-0.266607
2.799,-0.307214,-0.571251,-0.257499
2.819,-0.325928,-0.549214,-0.249531
2.839,-0.32734,-0.522588,-0.24295
2.859,-0.31689,-0.49311,-0.237123
2.879,-0.302068,-0.462842,-0.23187
2.899,-0.28447,-0.433351,-0.227749
2.919,-0.263711,-0.406433,-0.224479
2.939,-0.240401,-0.384178,-0.22128
2.959,-0.218795,-0.366459,-0.218296
2.979,-0.202741,-0.352373,-0.215793
2.999,-0.190579,-0.340669,-0.212964
3.019,-0.180139,-0.330784,-0.209535
3.039,-0.173039,-0.322673,-0.205587
3.059,-0.170824,-0.3159,-0.201241
3.079,-0.170374,-0.309271,-0.196825
3.099,-0.1689,-0.301522,-0.192452
3.119,-0.165889,-0.292435,-0.187676
3.139,-0.162961,-0.282817,-0.182346
3.159,-0.161284,-0.273069,-0.176913
3.179,-0.159459,-0.263245,-0.171612
3.199,-0.156107,-0.253265,-0.166764
3.219,-0.151218,-0.243691,-0.162595
3.239,-0.145058,-0.234926,-0.159099
3.259,-0.138624,-0.227083,-0.156032
3.279,-0.132996,-0.220259,-0.153323
3.299,-0.128224,-0.214365,-0.150843
3.319,-0.124007,-0.209156,-0.148613
3.339,-0.120289,-0.204337,-0.146555
3.359,-0.117129,-0.199724,-0.144701
3.379,-0.11451,-0.195257,-0.142939
3.399,-0.112652,-0.190832,-0.141105
3.419,-0.111517,-0.186324,-0.139043
3.439,-0.11046,-0.181588,-0.136763
3.459,-0.109418,-0.176646,-0.134424
3.479,-0.108412,-0.171824,-0.132131
3.499,-0.107451,-0.167312,-0.130012
3.519,-0.10655,-0.163133,-0.128077
3.539,-0.10541,-0.159212,-0.126259
3.559,-0.10396,-0.155498,-0.124486
3.579,-0.102607,-0.152045,-0.122735
3.599,-0.10163,-0.148754,-0.121033
3.619,-0.100606,-0.145454,-0.119376
3.639,-0.0992,-0.142206,-0.117801
3.659,-0.097678,-0.139013,-0.116287
3.679,-0.096216,-0.135837,-0.114731
3.699,-0.095012,-0.132841,-0.113084
3.719,-0.094269,-0.130136,-0.111354
3.739,-0.093768,-0.127599,-0.109671
3.759,-0.093059,-0.125079,-0.108218
3.779,-0.091899,-0.122532,-0.106963
3.799,-0.090558,-0.12,-0.105789
3.819,-0.089475,-0.117552,-0.10463
3.839,-0.088879,-0.115206,-0.103457
3.859,-0.088616,-0.112927,-0.102279
3.879,-0.088377,-0.110701,-0.101116
3.899,-0.087946,-0.108541,-0.099991
3.919,-0.087356,-0.106432,-0.098914
3.939,-0.086765,-0.104416,-0.097868
3.959,-0.086257,-0.10249,-0.09681
3.979,-0.085704,-0.100596,-0.095756
3.999,-0.085047,-0.098739,-0.094725
4.019,-0.084314,-0.096941,-0.093726
4.039,-0.083622,-0.095168,-0.092763
4.059,-0.083031,-0.093426,-0.091801
4.079,-0.082597,-0.091751,-0.090812
4.099,-0.082319,-0.090179,-0.089791
4.119,-0.082093,-0.088618,-0.088793
4.139,-0.081721,-0.086991,-0.087875
4.159,-0.081135,-0.085434,-0.087089
4.179,-0.080541,-0.083982,-0.086404
4.199,-0.080032,-0.082519,-0.085648
4.219,-0.079781,-0.081191,-0.084791
4.239,-0.079814,-0.079978,-0.083864
4.259,-0.079766,-0.07875,-0.082967
4.279,-0.079396,-0.077473,-0.082233
4.299,-0.078727,-0.076138,-0.081578
4.319,-0.077987,-0.074788,-0.080901
4.339,-0.077517,-0.07353,-0.080172
4.359,-0.077342,-0.072337,-0.079453
4.379,-0.077193,-0.071157,-0.078753
4.399,-0.076882,-0.069983,-0.078087
4.419,-0.076466,-0.068828,-0.077452
4.439,-0.07609,-0.067714,-0.076824
4.459,-0.075788,-0.066634,-0.076198
4.479,-0.075467,-0.065571,-0.075572
4.499,-0.075078,-0.064525,-0.074971
4.519,-0.074667,-0.063511,-0.07441
4.539,-0.074314,-0.062528,-0.073852
4.559,-0.074066,-0.061576,-0.07328
4.579,-0.0739,-0.060649,-0.072693
4.599,-0.073728,-0.059738,-0.072095
4.619,-0.073531,-0.058826,-0.071491
4.639,-0.0733,-0.057871,-0.070879
4.659,-0.07294,-0.056881,-0.070327
4.679,-0.072469,-0.055996,-0.069863
4.699,-0.072067,-0.055182,-0.069417
4.719,-0.071762,-0.054345,-0.068894
5.168,-0.071539,-0.053476,-0.068295
5.188,-0.071179,-0.05257,-0.067768
5.208,-0.070714,-0.051748,-0.067329
5.228,-0.070297,-0.050974,-0.066897
5.248,-0.070003,-0.050216,-0.066369
5.268,-0.070019,-0.049567,-0.065724
5.288,-0.070135,-0.048947,-0.065071
5.308,-0.069956,-0.048269,-0.064519
5.328,-0.069463,-0.047513,-0.064076
5.348,-0.068887,-0.046735,-0.063634
5.368,-0.068462,-0.045975,-0.063147
5.388,-0.06821,-0.045252,-0.062666
5.408,-0.068136,-0.044595,-0.062192
5.428,-0.068111,-0.043957,-0.061728
5.448,-0.067966,-0.043296,-0.06127
5.468,-0.067667,-0.042601,-0.06084
5.488,-0.067365,-0.041914,-0.060407
5.508,-0.067147,-0.041273,-0.059959
5.528,-0.066914,-0.040637,-0.059494
5.548,-0.066606,-0.039993,-0.059044
5.568,-0.066309,-0.03935,-0.058623
5.588,-0.066089,-0.038731,-0.058217
5.608,-0.06596,-0.038133,-0.057787
5.628,-0.065884,-0.037528,-0.057349
5.648,-0.065821,-0.036923,-0.056895
5.668,-0.065691,-0.036336,-0.056443
5.688,-0.065517,-0.035739,-0.056012
5.708,-0.065256,-0.035111,-0.055617
5.728,-0.064834,-0.034447,-0.055281
5.748,-0.064421,-0.033896,-0.054993
5.768,-0.064074,-0.033335,-0.054698
5.788,-0.063734,-0.032728,-0.054328
5.808,-0.063701,-0.03221,-0.053899
5.828,-0.063847,-0.031677,-0.05346
5.848,-0.063646,-0.031019,-0.053123
5.868,-0.063193,-0.030289,-0.052941
5.888,-0.062689,-0.029382,-0.052811
5.908,-0.061562,-0.028132,-0.052644
5.928,-0.060206,-0.027038,-0.052391
5.948,-0.060038,-0.026494,-0.05202
5.968,-0.061306,-0.026279,-0.051425
5.988,-0.063447,-0.026167,-0.050694
6.008,-0.065567,-0.025934,-0.049962
6.028,-0.067387,-0.02558,-0.049397
6.048,-0.068898,-0.025069,-0.048961
6.068,-0.069859,-0.024484,-0.048581
6.088,-0.070544,-0.024273,-0.048342
6.108,-0.071426,-0.02438,-0.048296
6.128,-0.072499,-0.02452,-0.048408
6.148,-0.073204,-0.024412,-0.048453
6.168,-0.073323,-0.024586,-0.048296
6.188,-0.073789,-0.025492,-0.04823
6.208,-0.074607,-0.026618,-0.048254
6.228,-0.075416,-0.027366,-0.048264
6.248,-0.075816,-0.028005,-0.048167
6.268,-0.076076,-0.02866,-0.048129
6.288,-0.075857,-0.029259,-0.048028
6.308,-0.075077,-0.030114,-0.048109
6.328,-0.074434,-0.031157,-0.048289
6.348,-0.074246,-0.031848,-0.048291
6.368,-0.074139,-0.031968,-0.047977
6.388,-0.073572,-0.032099,-0.04748
6.408,-0.072997,-0.032637,-0.047075
6.428,-0.073035,-0.033122,-0.046752
6.448,-0.073705,-0.033368,-0.046639
6.468,-0.074213,-0.033385,-0.046681
6.488,-0.074051,-0.033129,-0.04655
6.508,-0.073638,-0.032808,-0.046315
6.528,-0.073807,-0.032637,-0.046088
6.548,-0.074989,-0.032593,-0.045888
6.568,-0.077057,-0.032524,-0.045594
6.588,-0.079843,-0.032721,-0.045236
6.608,-0.083334,-0.033049,-0.045
6.628,-0.086831,-0.033137,-0.04489
6.648,-0.089201,-0.033096,-0.044841
6.668,-0.090478,-0.033242,-0.044931
6.688,-0.091576,-0.033792,-0.045265
6.708,-0.092693,-0.034682,-0.045829
6.728,-0.093633,-0.035852,-0.046291
6.748,-0.094903,-0.037554,-0.046492
6.768,-0.096044,-0.039931,-0.046672
6.788,-0.096921,-0.042888,-0.047055
6.808,-0.097495,-0.045986,-0.047795
6.828,-0.097381,-0.048809,-0.048891
6.848,-0.096636,-0.05131,-0.049941
6.868,-0.095785,-0.053468,-0.0507
6.888,-0.095273,-0.055303,-0.051122
6.908,-0.094702,-0.056693,-0.051461
6.928,-0.093849,-0.057548,-0.051506
6.948,-0.09279,-0.057808,-0.051517
6.968,-0.091804,-0.057498,-0.051282
6.988,-0.09089,-0.056773,-0.050817
7.008,-0.090387,-0.05593,-0.050105
7.028,-0.089644,-0.054477,-0.0497
7.048,-0.088858,-0.053067,-0.048904
7.068,-0.088679,-0.052177,-0.048161
7.088,-0.088835,-0.051183,-0.04755
7.108,-0.089137,-0.050179,-0.046909
7.128,-0.089374,-0.049129,-0.046064
7.148,-0.088844,-0.048069,-0.045566
