gyro_time_list,gyro_x_list,gyro_y_list,gyro_z_list
0.325000,-2.571363,-0.321620,2.625854
0.345000,-2.525598,-0.332345,2.598276
0.365000,-2.497679,-0.329702,2.523006
0.385000,-2.500722,-0.313517,2.404893
0.405000,-2.519087,-0.282809,2.247903
0.425000,-2.516976,-0.240238,2.064457
0.445000,-2.467602,-0.189493,1.869112
0.465000,-2.362673,-0.135329,1.671863
0.485000,-2.207932,-0.083721,1.482724
0.505000,-2.012906,-0.036392,1.310315
0.525000,-1.793143,0.004067,1.156408
0.545000,-1.568929,0.035679,1.022862
0.565000,-1.360584,0.058314,0.909055
0.585000,-1.182938,0.072117,0.813793
0.605000,-1.041468,0.077952,0.734951
0.625000,-0.932812,0.078608,0.669622
0.645000,-0.848868,0.074923,0.616518
0.665000,-0.780583,0.067565,0.574108
0.685000,-0.718958,0.057494,0.540896
0.705000,-0.657953,0.047456,0.516530
0.725000,-0.592629,0.036983,0.499670
0.745000,-0.517167,0.026158,0.491188
0.765000,-0.435488,0.016533,0.489427
0.785000,-0.361455,0.007366,0.490432
0.805000,-0.302197,-0.003536,0.492060
0.825000,-0.252031,-0.016085,0.494720
0.845000,-0.205081,-0.027577,0.497691
0.865000,-0.164900,-0.037161,0.499477
0.885000,-0.127742,-0.047018,0.499926
0.905000,-0.090018,-0.057224,0.499477
0.925000,-0.051484,-0.064992,0.498334
0.945000,-0.005989,-0.066609,0.498432
0.965000,0.051787,-0.061787,0.499791
0.985000,0.120041,-0.052822,0.502655
1.005000,0.199101,-0.043252,0.507492
1.025000,0.288292,-0.034564,0.510839
1.045000,0.372841,-0.026557,0.511538
1.065000,0.434132,-0.019948,0.510170
1.085000,0.462917,-0.015599,0.507275
1.105000,0.471470,-0.012611,0.504183
1.125000,0.488438,-0.011548,0.502286
1.145000,0.517540,-0.013155,0.500608
1.165000,0.539189,-0.017733,0.495121
1.185000,0.537192,-0.025349,0.483605
1.205000,0.527050,-0.033409,0.466641
1.225000,0.545855,-0.040757,0.447223
1.245000,0.599647,-0.048640,0.422710
1.265000,0.672540,-0.060482,0.390764
1.285000,0.748723,-0.080468,0.350452
1.305000,0.806754,-0.113204,0.296706
1.325000,0.829544,-0.154917,0.225686
1.345000,0.829036,-0.203971,0.129599
1.365000,0.826363,-0.259314,0.011308
1.385000,0.811206,-0.294488,-0.086930
1.405000,0.649131,-0.316773,-0.117088
1.425000,0.447529,-0.365859,-0.144415
1.445000,0.225888,-0.452186,-0.134892
1.465000,0.073670,-0.518477,-0.207895
1.485000,0.306802,-0.509249,-0.359052
1.505000,0.548478,-0.505424,-0.521090
1.525000,0.752680,-0.482488,-0.633044
1.545000,0.858752,-0.447542,-0.699907
1.565000,0.933745,-0.432456,-0.712633
1.585000,1.016684,-0.470274,-0.709665
1.605000,1.023921,-0.549778,-0.745426
1.625000,1.031460,-0.641307,-0.774024
1.645000,0.909406,-0.733104,-0.823025
1.665000,0.681763,-0.824603,-0.899734
1.685000,0.428396,-0.915036,-0.990219
1.705000,0.156177,-1.001587,-1.079121
1.725000,0.017439,-1.073407,-1.180161
1.745000,0.232029,-1.070744,-1.219781
1.765000,0.532288,-1.023062,-1.183102
1.785000,0.637588,-0.996483,-1.174923
1.805000,0.468969,-0.992472,-1.153185
1.825000,0.283198,-0.979015,-1.112096
1.845000,0.252598,-0.940425,-1.062332
1.867000,0.380729,-0.877694,-0.982798
1.887000,0.512074,-0.810203,-0.915474
1.907000,0.574328,-0.746625,-0.870758
1.927000,0.615709,-0.677334,-0.837604
1.947000,0.703014,-0.599361,-0.804932
1.967000,0.844358,-0.523819,-0.780505
1.987000,1.025247,-0.461421,-0.762772
2.007000,1.223141,-0.412220,-0.746072
2.027000,1.413539,-0.370672,-0.732559
2.047000,1.534313,-0.342688,-0.724420
2.067000,1.517685,-0.332328,-0.716906
2.087000,1.374893,-0.332198,-0.706776
2.107000,1.167417,-0.333345,-0.696384
2.127000,0.971152,-0.332293,-0.685365
2.147000,0.834908,-0.327882,-0.671274
2.167000,0.749963,-0.320224,-0.653196
2.187000,0.686991,-0.309604,-0.631635
2.207000,0.615500,-0.297689,-0.608998
2.227000,0.524918,-0.286891,-0.586528
2.247000,0.430242,-0.278304,-0.565196
2.267000,0.353266,-0.271007,-0.544950
2.287000,0.302589,-0.263993,-0.526199
2.307000,0.269681,-0.257666,-0.508553
2.354000,0.235239,-0.253067,-0.494827
2.374000,0.208362,-0.247915,-0.482412
2.394000,0.189031,-0.242298,-0.470139
2.414000,0.171377,-0.236967,-0.457269
2.434000,0.151860,-0.232669,-0.444279
2.454000,0.134617,-0.229065,-0.431220
2.474000,0.124416,-0.225735,-0.418269
2.494000,0.117680,-0.223465,-0.405599
2.514000,0.108055,-0.222612,-0.393617
2.534000,0.093313,-0.222424,-0.382568
2.554000,0.075902,-0.222516,-0.371919
2.574000,0.062130,-0.222604,-0.361177
2.594000,0.054471,-0.222156,-0.350247
2.614000,0.051057,-0.221156,-0.339746
2.634000,0.049308,-0.219532,-0.329704
2.654000,0.049344,-0.217634,-0.319738
2.674000,0.053674,-0.214850,-0.309574
2.694000,0.061326,-0.210532,-0.299840
2.714000,0.064835,-0.205088,-0.291706
2.734000,0.058726,-0.199475,-0.283774
2.754000,0.044204,-0.194328,-0.275906
2.774000,0.023957,-0.189739,-0.268033
2.794000,0.001696,-0.185697,-0.259432
2.814000,-0.014531,-0.182147,-0.250089
2.834000,-0.021797,-0.178936,-0.241274
2.854000,-0.025112,-0.175984,-0.233289
2.874000,-0.032316,-0.173432,-0.228231
2.894000,-0.037152,-0.171205,-0.226239
2.914000,-0.029597,-0.168071,-0.225007
2.934000,-0.015569,-0.164892,-0.224617
2.954000,-0.004078,-0.161981,-0.221993
2.974000,-0.006261,-0.160348,-0.218176
2.994000,-0.026033,-0.159417,-0.212477
3.014000,-0.057688,-0.158545,-0.205186
3.034000,-0.084359,-0.157020,-0.197355
3.054000,-0.090626,-0.153906,-0.190920
3.074000,-0.080125,-0.149907,-0.185261
3.094000,-0.067263,-0.146066,-0.180818
3.114000,-0.058218,-0.142949,-0.178976
3.134000,-0.049777,-0.140294,-0.178942
3.154000,-0.040106,-0.137804,-0.179519
3.174000,-0.031452,-0.135820,-0.180313
3.194000,-0.023121,-0.134509,-0.181095
3.214000,-0.014303,-0.132902,-0.181296
3.234000,-0.007247,-0.130833,-0.180391
3.254000,-0.003033,-0.128305,-0.178144
3.274000,0.000564,-0.125498,-0.175362
3.294000,0.003875,-0.122344,-0.172164
3.314000,0.004162,-0.119116,-0.168295
3.334000,0.000882,-0.116331,-0.164191
3.354000,-0.002570,-0.113913,-0.160220
3.374000,-0.003863,-0.111630,-0.156689
3.394000,-0.003608,-0.109673,-0.153803
3.414000,-0.003618,-0.108182,-0.151836
3.434000,-0.004707,-0.107099,-0.150356
3.454000,-0.006476,-0.106122,-0.149019
3.474000,-0.008248,-0.105016,-0.147701
3.494000,-0.009561,-0.103633,-0.146241
3.514000,-0.010374,-0.101914,-0.144586
3.534000,-0.010547,-0.099936,-0.142794
3.554000,-0.009900,-0.097861,-0.140893
3.574000,-0.009125,-0.095878,-0.139030
3.594000,-0.008813,-0.094087,-0.137353
3.614000,-0.008763,-0.092553,-0.135903
3.634000,-0.008634,-0.091246,-0.134605
3.654000,-0.008581,-0.090004,-0.133327
3.674000,-0.009173,-0.088846,-0.131997
3.694000,-0.010302,-0.087779,-0.130548
3.714000,-0.011167,-0.086705,-0.128966
3.734000,-0.010643,-0.085788,-0.127265
3.754000,-0.006650,-0.085033,-0.125626
3.774000,0.000761,-0.084022,-0.124140
3.794000,0.008269,-0.082873,-0.122854
3.814000,0.013579,-0.081859,-0.122013
3.834000,0.017203,-0.080856,-0.121456
3.854000,0.020120,-0.079708,-0.120823
3.874000,0.022765,-0.078584,-0.120055
3.894000,0.025260,-0.077441,-0.119229
3.914000,0.026579,-0.076243,-0.118351
3.934000,0.025707,-0.075183,-0.117335
3.954000,0.023347,-0.074332,-0.116146
3.974000,0.020648,-0.073496,-0.114802
3.994000,0.017739,-0.072595,-0.113424
4.014000,0.014566,-0.071769,-0.112199
4.034000,0.011991,-0.071013,-0.111030
4.054000,0.010604,-0.070124,-0.109827
4.074000,0.009751,-0.069153,-0.108654
4.094000,0.008812,-0.068242,-0.107613
4.114000,0.007976,-0.067353,-0.106693
4.134000,0.007460,-0.066458,-0.105780
4.154000,0.007119,-0.065579,-0.104844
4.174000,0.006691,-0.064698,-0.103905
4.194000,0.005954,-0.063849,-0.102924
4.214000,0.004922,-0.063040,-0.101950
4.234000,0.003775,-0.062248,-0.100966
4.254000,0.002740,-0.061490,-0.100026
4.274000,0.001995,-0.060704,-0.099153
4.294000,0.001311,-0.059895,-0.098340
4.314000,0.000546,-0.059072,-0.097571
4.334000,-0.000160,-0.058236,-0.096806
4.371000,-0.000450,-0.057389,-0.096014
4.391000,-0.000854,-0.056554,-0.095215
4.411000,-0.001597,-0.055782,-0.094417
4.431000,-0.002581,-0.055048,-0.093590
4.451000,-0.003702,-0.054342,-0.092728
4.471000,-0.004821,-0.053638,-0.091886
4.491000,-0.005810,-0.052911,-0.091047
4.511000,-0.006482,-0.052220,-0.090267
4.531000,-0.006661,-0.051520,-0.089555
4.551000,-0.006754,-0.050779,-0.088750
4.571000,-0.007328,-0.050110,-0.087906
4.591000,-0.008112,-0.049502,-0.087108
4.611000,-0.008532,-0.048782,-0.086351
4.631000,-0.008665,-0.047973,-0.085656
4.651000,-0.008928,-0.047192,-0.084958
4.671000,-0.009331,-0.046446,-0.084255
4.691000,-0.009700,-0.045729,-0.083554
4.711000,-0.010046,-0.045020,-0.082902
4.731000,-0.010458,-0.044322,-0.082269
4.751000,-0.010877,-0.043639,-0.081618
4.771000,-0.011148,-0.042944,-0.080965
4.791000,-0.011231,-0.042217,-0.080296
4.811000,-0.011299,-0.041472,-0.079661
4.831000,-0.011435,-0.040741,-0.079038
4.851000,-0.011482,-0.039972,-0.078437
4.871000,-0.011469,-0.039082,-0.077927
4.891000,-0.011564,-0.037955,-0.077564
4.911000,-0.011953,-0.036379,-0.077466
4.931000,-0.012516,-0.034254,-0.077793
4.951000,-0.012662,-0.031848,-0.078642
4.971000,-0.012082,-0.029484,-0.079782
4.991000,-0.011288,-0.027542,-0.080697
5.011000,-0.011592,-0.026335,-0.081197
5.031000,-0.012911,-0.025672,-0.081334
5.051000,-0.014301,-0.025340,-0.081311
5.071000,-0.015482,-0.025200,-0.081105
5.091000,-0.016115,-0.025749,-0.081097
5.111000,-0.015935,-0.026793,-0.081076
5.131000,-0.015249,-0.027530,-0.080821
5.151000,-0.014662,-0.027616,-0.080445
5.171000,-0.013104,-0.026433,-0.079908
5.191000,-0.007822,-0.023647,-0.079896
5.211000,0.000709,-0.020044,-0.079826
5.231000,0.009564,-0.016156,-0.079465
5.251000,0.017409,-0.012334,-0.079057
5.271000,0.024246,-0.008763,-0.078530
5.291000,0.029920,-0.005863,-0.077633
5.311000,0.033632,-0.003798,-0.076347
5.331000,0.034682,-0.002647,-0.075381
5.351000,0.033324,-0.002701,-0.074875
5.371000,0.029569,-0.003674,-0.074810
5.391000,0.023194,-0.005166,-0.074916
5.411000,0.014379,-0.006928,-0.074724
5.431000,0.003869,-0.008944,-0.073685
5.451000,-0.006141,-0.011178,-0.071973
5.471000,-0.013088,-0.013495,-0.069993
5.491000,-0.016918,-0.015326,-0.067878
5.511000,-0.019076,-0.017043,-0.067100
5.531000,-0.020595,-0.019211,-0.067788
5.551000,-0.020999,-0.021250,-0.069291
5.571000,-0.019878,-0.022286,-0.070902
5.591000,-0.018815,-0.022721,-0.072389
5.611000,-0.019180,-0.023015,-0.073614
5.631000,-0.020459,-0.022894,-0.074502
5.651000,-0.021973,-0.022259,-0.074980
5.671000,-0.023420,-0.021224,-0.075034
5.691000,-0.024472,-0.020145,-0.074592
5.711000,-0.025388,-0.019212,-0.073679
5.731000,-0.027259,-0.018541,-0.072816
5.751000,-0.030470,-0.018171,-0.072191
5.771000,-0.033608,-0.018034,-0.071838
5.791000,-0.035724,-0.017903,-0.071581
5.811000,-0.037606,-0.017864,-0.071261
5.831000,-0.040752,-0.018211,-0.070301
5.851000,-0.046069,-0.018768,-0.069873
5.871000,-0.051241,-0.019148,-0.069213
5.891000,-0.054019,-0.019004,-0.068778
5.911000,-0.054593,-0.018595,-0.067930
5.931000,-0.054801,-0.018286,-0.066958
5.951000,-0.056196,-0.018270,-0.065857
5.971000,-0.059499,-0.018538,-0.064866
5.991000,-0.063556,-0.019024,-0.063689
6.011000,-0.068777,-0.019652,-0.062319
6.031000,-0.072488,-0.019782,-0.061962
6.051000,-0.075890,-0.020311,-0.061566
6.071000,-0.078491,-0.020995,-0.060879
6.091000,-0.079800,-0.021573,-0.059540
6.111000,-0.079199,-0.021791,-0.058104
6.131000,-0.077431,-0.021319,-0.056727
6.151000,-0.075930,-0.020414,-0.055486
6.171000,-0.074719,-0.019681,-0.054372
6.191000,-0.074590,-0.019057,-0.053531
6.211000,-0.076772,-0.018569,-0.053119
6.231000,-0.076745,-0.017900,-0.052623
6.251000,-0.077249,-0.017730,-0.052346
6.271000,-0.078065,-0.017182,-0.052499
6.291000,-0.078972,-0.015997,-0.052515
6.311000,-0.080145,-0.014315,-0.051941
6.331000,-0.080757,-0.012705,-0.051024
6.351000,-0.080996,-0.011947,-0.049880
