gyro_time_list,gyro_x_list,gyro_y_list,gyro_z_list
0.277,-0.434467,-0.20451,0.163208
0.297,-0.384705,-0.176065,0.125837
0.317,-0.293103,-0.149811,0.110159
0.337,-0.202608,-0.13941,0.113035
0.357,-0.129831,-0.151481,0.134384
0.377,-0.092724,-0.185105,0.163675
0.397,-0.090073,-0.236342,0.196194
0.417,-0.103991,-0.292758,0.226223
0.437,-0.123232,-0.34481,0.2509
0.457,-0.136353,-0.390352,0.277039
0.477,-0.139665,-0.426795,0.306495
0.497,-0.140538,-0.451997,0.332914
0.517,-0.147051,-0.464223,0.350586
0.537,-0.15477,-0.469224,0.363745
0.557,-0.156294,-0.471936,0.374902
0.577,-0.14982,-0.473259,0.385591
0.597,-0.136705,-0.473957,0.396087
0.617,-0.120585,-0.47594,0.406739
0.637,-0.103607,-0.480393,0.415495
0.657,-0.090476,-0.488077,0.422092
0.677,-0.081548,-0.498972,0.426546
0.697,-0.075718,-0.51159,0.427804
0.717,-0.074287,-0.522983,0.427516
0.737,-0.081321,-0.532263,0.426921
0.757,-0.096756,-0.53575,0.423322
0.777,-0.115829,-0.535907,0.41117
0.797,-0.135728,-0.537302,0.401296
0.817,-0.15889,-0.536828,0.399173
0.837,-0.182375,-0.535983,0.4006
0.857,-0.201118,-0.539231,0.405691
0.877,-0.214869,-0.548779,0.415246
0.897,-0.222776,-0.565542,0.430429
0.917,-0.222165,-0.589477,0.448918
0.937,-0.218864,-0.616238,0.468131
0.957,-0.218327,-0.641909,0.489624
0.977,-0.221699,-0.665973,0.511151
0.997,-0.229379,-0.687891,0.531112
1.017,-0.241332,-0.706481,0.548423
1.037,-0.255515,-0.72098,0.562589
1.057,-0.271477,-0.730541,0.571908
1.077,-0.29166,-0.735652,0.576898
1.097,-0.314219,-0.738026,0.578349
1.117,-0.334664,-0.738236,0.576684
1.137,-0.354963,-0.736877,0.572694
1.157,-0.37528,-0.734633,0.566753
1.177,-0.393657,-0.73131,0.559854
1.197,-0.409325,-0.72619,0.552035
1.217,-0.425056,-0.719842,0.542143
1.237,-0.443296,-0.713659,0.530377
1.257,-0.46095,-0.707318,0.518114
1.277,-0.478821,-0.702293,0.507199
1.297,-0.498914,-0.701218,0.498646
1.317,-0.522246,-0.703798,0.492127
1.337,-0.547412,-0.708186,0.486801
1.357,-0.572199,-0.713986,0.482511
1.377,-0.599714,-0.720971,0.479686
1.397,-0.632147,-0.72849,0.478781
1.417,-0.669882,-0.735367,0.478797
1.437,-0.70982,-0.741493,0.478508
1.457,-0.749955,-0.747442,0.477176
1.477,-0.787775,-0.75329,0.475152
1.497,-0.822617,-0.758485,0.47265
1.517,-0.852084,-0.762267,0.469811
1.537,-0.876529,-0.764586,0.465076
1.557,-0.898134,-0.766055,0.458525
1.577,-0.914768,-0.766981,0.451678
1.597,-0.92083,-0.767393,0.446035
1.617,-0.91787,-0.766947,0.43968
1.637,-0.912206,-0.765519,0.433381
1.657,-0.908782,-0.762292,0.426723
1.677,-0.906844,-0.757156,0.419088
1.697,-0.903745,-0.750554,0.4107
1.717,-0.898562,-0.742612,0.402072
1.737,-0.889816,-0.733418,0.393595
1.757,-0.876807,-0.723003,0.384944
1.777,-0.860151,-0.711461,0.376428
1.797,-0.839668,-0.699182,0.368303
1.817,-0.816189,-0.68661,0.360153
1.837,-0.79249,-0.6739,0.351974
1.857,-0.770806,-0.661015,0.343934
1.877,-0.752129,-0.647905,0.335925
1.897,-0.73555,-0.63456,0.328186
1.917,-0.719108,-0.621285,0.320745
1.937,-0.701756,-0.608033,0.313725
1.957,-0.68249,-0.595004,0.307304
1.977,-0.662493,-0.582189,0.301411
1.997,-0.643672,-0.569505,0.296026
2.017,-0.626808,-0.557128,0.290912
2.037,-0.6118,-0.545006,0.285983
2.057,-0.597666,-0.532984,0.281113
2.077,-0.583196,-0.521212,0.276554
2.097,-0.568117,-0.509657,0.272387
2.117,-0.553293,-0.498321,0.268467
2.137,-0.539086,-0.487228,0.264678
2.157,-0.525603,-0.476449,0.260924
2.177,-0.513232,-0.46597,0.25726
2.197,-0.501548,-0.455554,0.253588
2.217,-0.489673,-0.445264,0.250033
2.237,-0.477419,-0.435378,0.246722
2.257,-0.465362,-0.425974,0.243479
3.335,-0.4556,-0.415454,0.248547
3.355,-0.446653,-0.405535,0.253522
3.375,-0.439289,-0.396416,0.258128
3.395,-0.433293,-0.38782,0.262537
3.415,-0.427933,-0.379759,0.266613
3.435,-0.422987,-0.372318,0.270303
3.455,-0.418177,-0.365584,0.273621
3.475,-0.413562,-0.359598,0.276582
3.495,-0.408953,-0.354102,0.279136
3.515,-0.404233,-0.349164,0.28105
3.535,-0.399298,-0.344668,0.282341
3.555,-0.394091,-0.340366,0.282965
3.575,-0.389389,-0.33639,0.282895
3.595,-0.384874,-0.332741,0.28222
3.615,-0.379982,-0.329301,0.281041
3.635,-0.374176,-0.326285,0.279606
3.655,-0.367389,-0.323641,0.277937
3.675,-0.360514,-0.321124,0.276021
3.695,-0.354048,-0.318696,0.273918
3.715,-0.347649,-0.3162,0.271788
3.735,-0.340587,-0.313316,0.269827
3.755,-0.332703,-0.310107,0.268141
3.775,-0.324257,-0.306754,0.266821
3.795,-0.315634,-0.303221,0.265917
3.815,-0.306969,-0.299586,0.265398
3.835,-0.298392,-0.295891,0.265296
3.855,-0.290414,-0.292164,0.265697
3.875,-0.283271,-0.288419,0.266499
3.895,-0.276461,-0.284626,0.267632
3.915,-0.269883,-0.280786,0.268764
3.935,-0.264155,-0.277098,0.269648
3.955,-0.259692,-0.273705,0.270278
3.975,-0.256094,-0.270409,0.270726
3.995,-0.252191,-0.266973,0.270828
4.015,-0.247689,-0.263326,0.270431
4.035,-0.242953,-0.259543,0.26955
4.055,-0.238302,-0.255857,0.268098
4.075,-0.233484,-0.252185,0.266184
4.095,-0.228861,-0.248792,0.264087
4.115,-0.224944,-0.246005,0.261916
4.135,-0.22209,-0.243848,0.259633
4.155,-0.220244,-0.242175,0.257151
4.175,-0.219353,-0.240739,0.254304
4.195,-0.219,-0.23905,0.251159
4.215,-0.218426,-0.237126,0.24783
4.235,-0.216644,-0.234816,0.244466
4.255,-0.213832,-0.231891,0.241262
4.275,-0.211052,-0.228521,0.238363
4.295,-0.209285,-0.224948,0.235608
4.315,-0.20867,-0.221101,0.233011
4.335,-0.208478,-0.216831,0.230847
4.355,-0.208126,-0.212284,0.229087
4.375,-0.207707,-0.207544,0.227697
4.395,-0.207703,-0.202435,0.226575
4.415,-0.207969,-0.196779,0.225665
4.435,-0.208477,-0.190596,0.224739
4.455,-0.209047,-0.183897,0.223742
4.475,-0.209153,-0.176641,0.222589
4.495,-0.208471,-0.169049,0.221343
4.515,-0.20733,-0.161536,0.220168
4.535,-0.206019,-0.154593,0.219063
4.555,-0.204585,-0.148322,0.21815
4.575,-0.203087,-0.142561,0.217482
4.595,-0.201607,-0.137183,0.217171
4.615,-0.200369,-0.132154,0.217151
4.635,-0.200074,-0.127639,0.217183
4.655,-0.200818,-0.123816,0.217145
4.675,-0.202352,-0.120532,0.216769
4.695,-0.20435,-0.117435,0.215896
4.715,-0.206362,-0.114408,0.214547
4.735,-0.20899,-0.11145,0.212449
4.755,-0.213501,-0.108602,0.20946
4.775,-0.220507,-0.106245,0.205465
4.795,-0.228287,-0.105101,0.200938
4.815,-0.234161,-0.105535,0.196969
4.835,-0.236358,-0.107893,0.19392
4.855,-0.235125,-0.112516,0.191827
4.875,-0.226578,-0.120106,0.191671
4.895,-0.208611,-0.129286,0.19351
4.915,-0.187948,-0.13682,0.196802
4.935,-0.173514,-0.141043,0.200289
4.955,-0.170387,-0.143964,0.202362
4.975,-0.179539,-0.145423,0.198832
4.995,-0.178707,-0.143141,0.193979
5.015,-0.156738,-0.140689,0.196486
5.035,-0.136441,-0.14635,0.210534
5.055,-0.159983,-0.150909,0.241468
5.075,-0.192262,-0.140323,0.284315
5.095,-0.235852,-0.113814,0.332822
5.115,-0.292291,-0.086425,0.387466
5.135,-0.330392,-0.101903,0.442978
5.155,-0.291441,-0.122417,0.493148
5.175,-0.197676,-0.119205,0.545557
5.195,-0.091507,-0.111606,0.597893
5.215,0.018599,-0.110964,0.638277
5.235,0.026077,-0.110279,0.688682
5.255,-0.102676,-0.074545,0.734031
5.275,-0.244089,-0.079787,0.822607
5.295,-0.397347,-0.067902,0.827208
5.315,-0.483729,-0.043859,0.811177
5.607,-0.536101,-0.011012,0.841103
5.627,-0.568396,0.005433,0.858447
5.647,-0.549439,0.007258,0.864938
5.667,-0.450588,0.000334,0.864055
5.687,-0.337659,-0.014411,0.863575
5.707,-0.244621,-0.031223,0.868209
5.727,-0.213995,-0.039341,0.862584
5.747,-0.215346,-0.040199,0.846561
5.767,-0.224959,-0.038486,0.825388
5.787,-0.230577,-0.038259,0.805501
5.807,-0.213879,-0.039454,0.787928
5.827,-0.179067,-0.041589,0.769433
5.847,-0.138027,-0.044697,0.751949
5.867,-0.099085,-0.046924,0.736756
5.887,-0.065518,-0.047521,0.72314
5.907,-0.0393,-0.046077,0.706739
5.927,-0.027674,-0.043075,0.683749
5.947,-0.031863,-0.041595,0.657594
5.967,-0.044442,-0.042231,0.631679
5.987,-0.053102,-0.043601,0.608837
6.007,-0.050149,-0.044257,0.59044
6.027,-0.04207,-0.043525,0.57438
6.047,-0.038528,-0.041469,0.559261
6.067,-0.04348,-0.038385,0.54438
6.087,-0.054498,-0.03497,0.528662
6.107,-0.067142,-0.032023,0.511547
6.127,-0.077374,-0.029751,0.493845
6.147,-0.084003,-0.027872,0.47696
6.167,-0.087888,-0.026157,0.462526
6.187,-0.089934,-0.024975,0.450523
6.207,-0.088707,-0.024166,0.440899
6.227,-0.083433,-0.023274,0.432646
6.247,-0.076738,-0.022132,0.42445
6.267,-0.070782,-0.020929,0.415715
6.287,-0.06717,-0.019863,0.406063
6.307,-0.066291,-0.019194,0.39543
6.327,-0.067086,-0.018993,0.384324
6.347,-0.069283,-0.019488,0.372833
6.367,-0.071605,-0.02065,0.360948
6.387,-0.072887,-0.022334,0.350402
6.407,-0.073033,-0.024875,0.342245
6.427,-0.071456,-0.028057,0.336141
6.447,-0.067236,-0.031363,0.330772
6.467,-0.063728,-0.034681,0.325477
6.487,-0.061554,-0.038417,0.319159
6.507,-0.058593,-0.041903,0.311034
6.527,-0.055345,-0.045318,0.300766
6.547,-0.05179,-0.04843,0.288661
6.567,-0.045679,-0.051098,0.277371
6.587,-0.039704,-0.053711,0.268524
6.607,-0.036275,-0.056889,0.262577
6.627,-0.033877,-0.060403,0.258597
6.647,-0.027841,-0.063476,0.255507
6.667,-0.018368,-0.065942,0.251526
6.687,-0.008679,-0.067925,0.247022
6.707,-0.000233,-0.069339,0.240132
6.727,0.007844,-0.069959,0.231675
6.747,0.015538,-0.070853,0.222347
6.767,0.021149,-0.073049,0.214477
6.787,0.024598,-0.075301,0.206553
6.807,0.026291,-0.077592,0.197677
6.827,0.025977,-0.079775,0.187214
6.847,0.025105,-0.081134,0.1769
6.867,0.02765,-0.082185,0.16905
6.887,0.032207,-0.08332,0.162275
6.907,0.03614,-0.083753,0.155954
6.927,0.040507,-0.083831,0.14996
6.947,0.045353,-0.083714,0.144125
6.967,0.049236,-0.08324,0.13758
6.987,0.051632,-0.082363,0.129005
7.007,0.053751,-0.081851,0.117783
7.027,0.055732,-0.081231,0.106074
7.047,0.058128,-0.07985,0.099147
7.067,0.062829,-0.077763,0.098611
7.087,0.067629,-0.076361,0.103387
7.107,0.070004,-0.074768,0.107489
7.127,0.074079,-0.073277,0.111898
7.147,0.077027,-0.072355,0.112215
7.167,0.076626,-0.071517,0.107475
7.187,0.075778,-0.070521,0.104826
7.207,0.075165,-0.070313,0.10712
7.227,0.073507,-0.070826,0.109826
7.247,0.069507,-0.071265,0.11036
7.267,0.066095,-0.071419,0.109956
7.287,0.064309,-0.071663,0.111633
7.307,0.064427,-0.071743,0.11389
7.327,0.065528,-0.071032,0.113442
7.347,0.066527,-0.069781,0.111798
7.367,0.06653,-0.068718,0.110511
7.387,0.06451,-0.067833,0.10801
7.407,0.063327,-0.066816,0.104996
7.427,0.064679,-0.06588,0.103832
7.447,0.066498,-0.064979,0.103432
7.467,0.067175,-0.063899,0.102254
7.487,0.067605,-0.062653,0.100493
7.507,0.068435,-0.061378,0.098414
7.527,0.068608,-0.060241,0.095667
7.547,0.067277,-0.059265,0.092935
7.567,0.065748,-0.058513,0.091565
7.587,0.064703,-0.057586,0.089685
7.7,0.063675,-0.056624,0.087848
7.72,0.062067,-0.055834,0.086192
7.74,0.060839,-0.055051,0.083887
7.76,0.059993,-0.054284,0.082003
7.78,0.059389,-0.053495,0.080672
7.8,0.059068,-0.05255,0.079185
7.82,0.058679,-0.051654,0.078125
7.84,0.057745,-0.050887,0.077237
7.86,0.056495,-0.050091,0.075964
7.88,0.054852,-0.049444,0.074894
7.9,0.053274,-0.048783,0.074408
7.92,0.052639,-0.048059,0.073447
7.94,0.052398,-0.047248,0.07253
7.96,0.051983,-0.046564,0.071821
7.98,0.051179,-0.045941,0.070912
8,0.050076,-0.045362,0.069776
8.02,0.048935,-0.044776,0.068686
8.04,0.047854,-0.044155,0.067572
8.06,0.046678,-0.043563,0.066408
8.08,0.0454,-0.04298,0.065283
8.1,0.044166,-0.042341,0.0644
8.12,0.04308,-0.041672,0.063403
8.14,0.042143,-0.041024,0.06262
8.16,0.041248,-0.040382,0.061852
8.18,0.040464,-0.039746,0.061066
8.2,0.03972,-0.039163,0.060469
8.22,0.039199,-0.038539,0.059981
8.24,0.038844,-0.037923,0.059545
8.26,0.038541,-0.037305,0.059078
8.28,0.038359,-0.036675,0.058791
8.3,0.038234,-0.03607,0.058523
8.32,0.037982,-0.03547,0.058116
8.34,0.037621,-0.034936,0.057696
8.36,0.037128,-0.03448,0.057329
8.38,0.036322,-0.034047,0.056793
8.4,0.035391,-0.033599,0.056195
8.42,0.034486,-0.033142,0.055716
8.44,0.033553,-0.032648,0.055113
8.46,0.03259,-0.032155,0.054359
8.48,0.031533,-0.031676,0.053543
8.5,0.030321,-0.031179,0.05263
8.52,0.028781,-0.030665,0.051538
8.54,0.026863,-0.030278,0.050417
8.56,0.02533,-0.029804,0.049247
8.58,0.024346,-0.029169,0.04813
8.6,0.023022,-0.028729,0.047299
8.62,0.023177,-0.02827,0.046818
8.64,0.025125,-0.027562,0.04705
8.66,0.02788,-0.026909,0.047938
8.68,0.029922,-0.026359,0.04831
8.7,0.030857,-0.025976,0.048608
8.72,0.031099,-0.025787,0.049241
8.74,0.030997,-0.025629,0.049885
8.76,0.031389,-0.02529,0.049979
8.78,0.032367,-0.024742,0.049872
8.8,0.033303,-0.024162,0.049673
8.82,0.033966,-0.023699,0.049426
8.84,0.034385,-0.023286,0.048915
8.86,0.034574,-0.022868,0.048506
8.88,0.034057,-0.022517,0.047921
8.9,0.032664,-0.022316,0.047189
8.92,0.031089,-0.022133,0.046686
8.94,0.030375,-0.021731,0.04643
8.96,0.030645,-0.021149,0.04609
8.98,0.0312,-0.020517,0.045614
9,0.032059,-0.019904,0.045543
9.02,0.03356,-0.019274,0.04583
9.04,0.036178,-0.018475,0.046135
9.06,0.039468,-0.017623,0.045946
9.08,0.042268,-0.016957,0.045819
9.1,0.043698,-0.016578,0.045707
9.12,0.044069,-0.016332,0.045258
9.14,0.043967,-0.016109,0.044633
9.16,0.043244,-0.01593,0.044287
9.18,0.041707,-0.015902,0.043884
9.2,0.039989,-0.016052,0.043405
9.22,0.038619,-0.016166,0.04319
9.24,0.038028,-0.016096,0.042806
9.26,0.037002,-0.01591,0.042025
9.28,0.034794,-0.01582,0.041053
9.3,0.03166,-0.01585,0.040237
9.32,0.028405,-0.015763,0.039286
9.34,0.025548,-0.01548,0.038192
9.36,0.023892,-0.015109,0.036984
9.38,0.023115,-0.014755,0.035995
9.4,0.022097,-0.014399,0.035069
9.42,0.020815,-0.014049,0.033891
9.44,0.019368,-0.013758,0.032615
9.46,0.018372,-0.013382,0.031515
9.48,0.018399,-0.012695,0.030494
9.5,0.019106,-0.011859,0.029332
9.52,0.020077,-0.01109,0.028425
9.54,0.020736,-0.0105,0.028022
9.56,0.020655,-0.010123,0.027714
9.58,0.020051,-0.009835,0.027245
9.6,0.019486,-0.009533,0.027153
9.62,0.018882,-0.009227,0.027148
9.64,0.018345,-0.008861,0.027198
9.66,0.018342,-0.008524,0.026943
9.68,0.018692,-0.008058,0.027128
