accel_time_list,accel_x_list,accel_y_list,accel_z_list
0.381,-8.339005,-3.359065,4.024653
0.401,-8.311471,-3.345897,4.019865
0.421,-8.295105,-3.32235,4.023057
0.441,-8.277338,-3.292603,4.009688
0.461,-8.244145,-3.232544,3.980104
0.481,-8.224396,-3.196433,3.946372
0.501,-8.207541,-3.179907,3.918132
0.521,-8.182283,-3.161199,3.888517
0.541,-8.158343,-3.134871,3.853416
0.561,-8.141344,-3.106073,3.818292
0.581,-8.139274,-3.076113,3.787971
0.601,-8.151012,-3.046874,3.768538
0.621,-8.171897,-3.015005,3.75938
0.641,-8.194657,-2.980337,3.751713
0.661,-8.220391,-2.950555,3.744427
0.681,-8.243713,-2.922928,3.745497
0.701,-8.261744,-2.894908,3.758003
0.721,-8.272224,-2.854768,3.77493
0.741,-8.264238,-2.803597,3.790734
0.761,-8.246425,-2.753041,3.8079
0.781,-8.226787,-2.703821,3.833002
0.801,-8.211584,-2.657357,3.865267
0.821,-8.199191,-2.616083,3.891959
0.841,-8.186801,-2.58819,3.911644
0.861,-8.176682,-2.576749,3.928983
0.881,-8.171813,-2.573852,3.951529
0.901,-8.173446,-2.571564,3.977277
0.921,-8.172224,-2.567526,4.000362
0.941,-8.16879,-2.566697,4.019554
0.961,-8.167316,-2.5678,4.036306
0.981,-8.171193,-2.566606,4.055517
1.001,-8.176598,-2.561115,4.073076
1.021,-8.181599,-2.555042,4.086718
1.041,-8.189065,-2.556751,4.099102
1.061,-8.199502,-2.567074,4.109233
1.081,-8.208961,-2.579509,4.114501
1.101,-8.209185,-2.583001,4.112378
1.121,-8.196191,-2.579183,4.106247
1.141,-8.186386,-2.569749,4.097738
1.161,-8.183058,-2.550948,4.089983
1.181,-8.170137,-2.522221,4.07859
1.201,-8.152238,-2.492614,4.073207
1.221,-8.136967,-2.459655,4.068744
1.241,-8.114778,-2.420085,4.054334
1.261,-8.088487,-2.387266,4.040764
1.281,-8.073579,-2.364058,4.043723
1.301,-8.061308,-2.336287,4.053027
1.321,-8.034437,-2.300212,4.061458
1.341,-7.99646,-2.2711,4.061651
1.361,-7.95431,-2.259002,4.058602
1.381,-7.916072,-2.261686,4.058439
1.401,-7.888406,-2.26956,4.070399
1.421,-7.86692,-2.265257,4.092439
1.441,-7.838969,-2.250817,4.109915
1.461,-7.815722,-2.243007,4.121863
1.481,-7.811508,-2.239887,4.137647
1.501,-7.812226,-2.227541,4.165695
1.521,-7.812768,-2.19407,4.200235
1.541,-7.810784,-2.14178,4.229299
1.561,-7.812987,-2.089896,4.258011
1.581,-7.814643,-2.043689,4.288052
1.601,-7.79811,-2.006592,4.319414
1.621,-7.785616,-1.974277,4.353016
1.641,-7.781256,-1.934824,4.376153
1.661,-7.763848,-1.879529,4.392542
1.681,-7.739424,-1.813991,4.41036
1.701,-7.708697,-1.751545,4.420795
1.721,-7.653756,-1.698465,4.408649
1.741,-7.573781,-1.662388,4.379178
1.761,-7.482188,-1.646454,4.354447
1.781,-7.38609,-1.63309,4.343062
1.801,-7.284989,-1.599944,4.34699
1.821,-7.177315,-1.566669,4.352443
1.841,-7.055545,-1.564132,4.345706
1.861,-6.907411,-1.514794,4.29568
1.881,-6.653272,-1.362473,4.176254
1.901,-6.143358,-1.19796,4.033169
1.921,-5.469229,-1.215213,3.888224
1.941,-5.063509,-1.518262,3.62635
1.961,-5.064836,-2.139612,3.177109
1.981,-8.558389,-5.126642,5.638422
2.001,-13.82796,-10.39427,4.012204
2.021,-13.12157,6.333624,-4.642065
2.041,-7.417935,28.37645,12.66362
2.061,-5.577328,11.53636,14.83732
2.081,-3.587522,-7.542952,5.369137
2.101,-1.744758,-16.31322,4.282845
2.121,-3.022672,-14.04982,8.01826
2.141,-1.759479,-8.568762,11.42427
2.161,0.647163,-9.307615,7.587959
2.181,-2.397708,-15.09437,3.284709
2.201,1.896665,-13.19114,0.215357
2.221,3.286735,-13.57089,0.534057
2.241,1.080182,-11.75898,2.881035
2.261,1.258685,-9.529249,4.215033
2.281,1.950242,-8.08293,4.575303
2.301,2.067021,-6.704288,4.625464
2.321,2.371528,-5.620736,5.170485
2.341,2.278759,-5.677752,5.732227
2.361,1.890399,-6.176281,6.004364
3.17,1.841208,-5.634634,6.493536
3.19,1.789462,-5.152916,6.946393
3.21,1.747699,-4.75528,7.332356
3.23,1.716303,-4.470396,7.648688
3.25,1.689591,-4.252092,7.907702
3.27,1.66443,-4.051526,8.145723
3.29,1.653292,-3.867725,8.347878
3.31,1.652791,-3.717741,8.511139
3.33,1.649406,-3.616514,8.666931
3.35,1.638147,-3.544005,8.80275
3.37,1.636555,-3.452121,8.932384
3.39,1.636836,-3.349101,9.041767
3.41,1.639063,-3.263964,9.125873
3.43,1.639524,-3.202933,9.202057
3.45,1.635529,-3.159866,9.27841
3.47,1.640051,-3.116832,9.357631
3.49,1.642463,-3.068669,9.430443
3.51,1.642819,-3.025574,9.49781
3.53,1.641943,-2.993468,9.556614
3.55,1.643374,-2.963035,9.61069
3.57,1.656135,-2.917274,9.656207
3.59,1.660297,-2.865975,9.704852
3.61,1.659732,-2.829177,9.756178
3.63,1.661771,-2.803352,9.801027
3.65,1.665972,-2.779588,9.839778
3.67,1.673749,-2.751528,9.874508
3.69,1.684284,-2.727566,9.902292
3.71,1.692364,-2.706104,9.918735
3.73,1.70351,-2.689192,9.934772
3.75,1.716381,-2.681948,9.948503
3.77,1.728652,-2.674006,9.965082
3.79,1.737465,-2.669053,9.982904
3.81,1.745283,-2.681012,9.997627
3.83,1.758879,-2.706833,10.00288
3.85,1.779746,-2.726246,10.00182
3.87,1.800104,-2.729698,10.00247
3.89,1.81551,-2.737224,10.00088
3.91,1.834503,-2.754088,9.993598
3.93,1.854254,-2.763971,9.986172
3.95,1.868077,-2.772465,9.986111
3.97,1.878942,-2.781701,9.994449
3.99,1.89001,-2.783589,10.01003
4.01,1.901325,-2.778677,10.02849
4.03,1.913026,-2.77146,10.04496
4.05,1.922361,-2.768458,10.06414
4.07,1.927946,-2.770217,10.08414
4.09,1.934178,-2.763996,10.10586
4.11,1.949354,-2.740806,10.12381
4.13,1.96899,-2.711647,10.13557
4.15,1.986443,-2.69012,10.13268
4.17,1.99938,-2.675659,10.12386
4.19,2.011299,-2.671019,10.11493
4.21,2.022988,-2.676442,10.11168
4.23,2.033585,-2.686114,10.11666
4.25,2.041279,-2.693424,10.12809
4.27,2.053535,-2.699921,10.14591
4.29,2.076882,-2.714687,10.15366
4.31,2.097769,-2.735969,10.14371
4.33,2.117354,-2.750467,10.12548
4.35,2.138148,-2.758907,10.10292
4.37,2.158402,-2.761168,10.0851
4.39,2.180386,-2.754185,10.08058
4.41,2.195492,-2.762233,10.08813
4.43,2.207747,-2.790814,10.09471
4.45,2.219199,-2.809759,10.09702
4.47,2.232777,-2.810776,10.09968
4.49,2.248193,-2.806887,10.10142
4.51,2.264311,-2.803887,10.10097
4.53,2.278743,-2.803644,10.09824
4.55,2.292104,-2.804426,10.09676
4.57,2.305841,-2.805721,10.09768
4.59,2.319528,-2.809024,10.09929
4.61,2.333433,-2.812081,10.10074
4.63,2.347328,-2.815307,10.09971
4.65,2.36013,-2.819207,10.09879
4.67,2.373608,-2.822281,10.09818
4.69,2.386791,-2.825199,10.09689
4.71,2.399394,-2.830174,10.09618
4.73,2.41132,-2.83433,10.09862
4.75,2.423019,-2.835775,10.10025
4.77,2.434423,-2.83762,10.1017
4.79,2.445364,-2.843121,10.10278
4.81,2.455851,-2.84489,10.10246
4.83,2.467897,-2.842368,10.10219
4.85,2.481995,-2.840716,10.09837
4.87,2.494853,-2.842294,10.09432
4.89,2.506456,-2.844809,10.09118
4.91,2.517032,-2.848758,10.09109
4.93,2.526944,-2.853974,10.09173
4.95,2.536747,-2.858711,10.09152
4.97,2.545941,-2.86371,10.09223
4.99,2.555941,-2.864938,10.09266
5.01,2.566965,-2.864564,10.0919
5.03,2.576818,-2.866751,10.09037
5.05,2.585393,-2.870689,10.09016
5.07,2.594992,-2.873768,10.09141
5.09,2.604855,-2.875327,10.09205
5.11,2.614462,-2.876937,10.09125
5.13,2.622829,-2.879349,10.09049
5.15,2.631218,-2.880659,10.0912
5.955,2.640008,-2.883145,10.09052
5.975,2.64916,-2.884793,10.09011
5.995,2.657641,-2.88544,10.09038
6.015,2.664475,-2.885409,10.09135
6.035,2.671324,-2.88685,10.09209
6.055,2.678371,-2.890918,10.09125
6.075,2.685764,-2.894886,10.09058
6.095,2.692564,-2.898682,10.09104
6.115,2.699679,-2.90241,10.09116
6.135,2.706541,-2.903163,10.09158
6.155,2.713302,-2.902346,10.09244
6.175,2.720462,-2.902117,10.09243
6.195,2.727811,-2.902113,10.09159
6.215,2.734218,-2.902402,10.0907
6.235,2.740478,-2.903744,10.09076
6.255,2.746564,-2.90485,10.09149
6.275,2.752934,-2.904963,10.09232
6.295,2.759218,-2.90584,10.09172
6.315,2.765025,-2.908002,10.08997
6.335,2.77017,-2.910909,10.08948
6.355,2.775772,-2.912709,10.09091
6.375,2.781712,-2.913126,10.09188
6.395,2.786948,-2.913851,10.09161
6.415,2.791739,-2.915119,10.09097
6.435,2.797356,-2.915679,10.09042
6.455,2.80301,-2.916354,10.08967
6.475,2.808408,-2.918723,10.08935
6.495,2.813133,-2.92133,10.08901
6.515,2.817592,-2.922476,10.08983
6.535,2.822466,-2.923322,10.09052
6.555,2.827413,-2.924711,10.08995
6.575,2.832251,-2.926804,10.08903
6.595,2.836828,-2.929211,10.08944
6.615,2.841328,-2.930493,10.09064
6.635,2.846257,-2.931498,10.09067
6.655,2.851006,-2.933739,10.08958
6.675,2.855478,-2.936388,10.08871
6.695,2.859802,-2.938556,10.08795
6.715,2.864253,-2.940654,10.0877
6.735,2.868583,-2.942061,10.08757
6.755,2.872624,-2.942616,10.08747
6.775,2.876793,-2.942518,10.08753
6.795,2.881064,-2.942039,10.08709
6.815,2.885342,-2.941924,10.08695
6.835,2.889169,-2.9426,10.08706
6.855,2.893269,-2.944059,10.08694
6.875,2.897233,-2.945862,10.0868
6.895,2.901229,-2.946906,10.08632
6.915,2.905352,-2.947723,10.08575
6.935,2.909171,-2.949323,10.08518
6.955,2.912928,-2.951409,10.08458
6.975,2.917174,-2.953427,10.08436
6.995,2.92121,-2.954299,10.0845
7.015,2.924894,-2.954707,10.08419
7.035,2.928446,-2.95516,10.08357
7.055,2.931363,-2.955033,10.08379
7.075,2.934371,-2.955123,10.08452
7.095,2.937852,-2.956864,10.08399
7.115,2.941825,-2.959928,10.082
7.135,2.944537,-2.9638,10.08064
7.155,2.946934,-2.966819,10.08125
7.175,2.950409,-2.966791,10.08262
7.195,2.953945,-2.965183,10.08298
7.215,2.957183,-2.964668,10.08215
7.235,2.960387,-2.964877,10.08155
7.255,2.963393,-2.964773,10.08208
7.275,2.966128,-2.965532,10.08201
7.295,2.969028,-2.967815,10.08113
7.315,2.972258,-2.969501,10.08032
7.335,2.975456,-2.969542,10.07993
7.355,2.978622,-2.969846,10.08014
7.375,2.981588,-2.969811,10.08076
7.395,2.983974,-2.970544,10.0806
7.415,2.986504,-2.973495,10.08004
7.435,2.989679,-2.976225,10.07953
7.455,2.993038,-2.977372,10.07949
7.475,2.993849,-2.960695,10.0832
7.495,2.998626,-2.968892,10.08003
7.515,3.001824,-2.969897,10.07976
7.535,3.004415,-2.975967,10.07676
7.555,3.006381,-2.980684,10.07583
7.575,3.007537,-2.98521,10.0751
7.595,3.009496,-2.984711,10.07687
7.615,3.011149,-2.988215,10.07463
7.635,3.016687,-2.988476,10.07286
7.655,3.021284,-2.982246,10.07474
7.675,3.023512,-2.974833,10.07819
7.695,3.026197,-2.977191,10.07799
7.715,3.027347,-2.983691,10.07492
7.735,3.030186,-2.985051,10.07432
7.755,3.032589,-2.985606,10.07612
7.775,3.034944,-2.98314,10.07998
7.795,3.032487,-2.987737,10.07632
7.815,3.036255,-2.985585,10.07585
7.835,3.038861,-2.988577,10.07287
7.855,3.049198,-2.995395,10.06958
7.875,3.050166,-3.001665,10.06743
7.895,3.049999,-3.004042,10.06559
7.915,3.054119,-3.010633,10.06231
7.935,3.061023,-3.016176,10.05829
