gyro_time_list,gyro_x_list,gyro_y_list,gyro_z_list
0.310000,0.411018,0.336675,1.279020
0.330000,0.434201,0.330080,1.283417
0.350000,0.444202,0.316376,1.274533
0.370000,0.432926,0.301983,1.250390
0.390000,0.399881,0.290269,1.211290
0.410000,0.351979,0.279648,1.158105
0.430000,0.293390,0.266170,1.091141
0.450000,0.222376,0.249328,1.012469
0.470000,0.137849,0.232363,0.924905
0.490000,0.046029,0.216821,0.833758
0.510000,-0.039936,0.201845,0.743044
0.530000,-0.111067,0.185419,0.657129
0.550000,-0.168611,0.169686,0.578472
0.570000,-0.213211,0.156622,0.509957
0.590000,-0.242767,0.146413,0.453327
0.610000,-0.257197,0.137857,0.409184
0.630000,-0.260381,0.130002,0.375753
0.650000,-0.257118,0.123499,0.350283
0.670000,-0.248327,0.119635,0.330580
0.690000,-0.232292,0.117720,0.314940
0.710000,-0.208714,0.115992,0.302096
0.730000,-0.178961,0.113848,0.290082
0.750000,-0.144537,0.111798,0.278473
0.770000,-0.106916,0.109095,0.267129
0.790000,-0.067821,0.104589,0.256013
0.810000,-0.032120,0.098684,0.244566
0.830000,-0.004780,0.093080,0.232190
0.850000,0.013569,0.088035,0.219283
0.870000,0.024600,0.082853,0.206672
0.890000,0.029171,0.077602,0.194444
0.910000,0.028975,0.072530,0.182513
0.930000,0.027604,0.067156,0.170598
0.950000,0.027755,0.060626,0.158653
0.970000,0.029136,0.051970,0.146201
0.990000,0.029736,0.041383,0.131809
1.010000,0.028810,0.029831,0.114687
1.030000,0.027382,0.017462,0.095712
1.050000,0.024713,0.002761,0.075835
1.070000,0.018981,-0.013753,0.054009
1.090000,0.011086,-0.029600,0.030475
1.110000,0.005094,-0.043803,0.007104
1.130000,0.004878,-0.058072,-0.015940
1.150000,0.010882,-0.073777,-0.039655
1.170000,0.022182,-0.090937,-0.064440
1.190000,0.037894,-0.108956,-0.090937
1.210000,0.057123,-0.127698,-0.119531
1.230000,0.078328,-0.147537,-0.149382
1.250000,0.100691,-0.169656,-0.179949
1.270000,0.126323,-0.195076,-0.210334
1.290000,0.153444,-0.223845,-0.240045
1.310000,0.176681,-0.254582,-0.270166
1.330000,0.193585,-0.286283,-0.301512
1.350000,0.215019,-0.321336,-0.331487
1.370000,0.251311,-0.360659,-0.359562
1.390000,0.296106,-0.401207,-0.385396
1.410000,0.333530,-0.441029,-0.410955
1.430000,0.354786,-0.478523,-0.438484
1.450000,0.362955,-0.512818,-0.467630
1.470000,0.374521,-0.544328,-0.495177
1.490000,0.401531,-0.573387,-0.519175
1.510000,0.440218,-0.600911,-0.539584
1.530000,0.477890,-0.626733,-0.559571
1.550000,0.506405,-0.650356,-0.580500
1.570000,0.527503,-0.671668,-0.599520
1.590000,0.538089,-0.689254,-0.614698
1.610000,0.534342,-0.701411,-0.628406
1.630000,0.527215,-0.708678,-0.628017
1.650000,0.530560,-0.707248,-0.603110
1.670000,0.543919,-0.693542,-0.552503
1.690000,0.552741,-0.666095,-0.475919
1.710000,0.542931,-0.620204,-0.388847
1.730000,0.494945,-0.548716,-0.322394
1.750000,0.389797,-0.660668,-0.299211
1.770000,0.280394,-0.780914,-0.432825
1.790000,0.261712,-0.908663,-0.537555
1.810000,0.115938,-0.781435,-0.685875
1.830000,-0.044901,-0.582038,-0.612129
1.850000,-0.096104,-0.469845,-0.628483
1.870000,0.022171,-0.436097,-0.660164
1.890000,0.075502,-0.448909,-0.655191
1.910000,0.050421,-0.452087,-0.627872
1.930000,0.021368,-0.444083,-0.596585
1.950000,0.012735,-0.432922,-0.561331
1.970000,0.012611,-0.415225,-0.542149
1.990000,-0.004153,-0.381477,-0.534910
2.010000,-0.043336,-0.353190,-0.538848
2.030000,-0.097740,-0.334774,-0.536006
2.050000,-0.122570,-0.321737,-0.527693
2.070000,-0.134041,-0.290747,-0.509715
2.090000,-0.140116,-0.251862,-0.489137
2.110000,-0.154254,-0.217951,-0.474358
2.130000,-0.180875,-0.193654,-0.456388
2.150000,-0.190992,-0.180741,-0.439782
2.170000,-0.182723,-0.178489,-0.421589
2.190000,-0.172527,-0.180927,-0.405728
2.210000,-0.158915,-0.183156,-0.392384
2.230000,-0.146317,-0.183354,-0.380641
2.250000,-0.143948,-0.180192,-0.371108
2.270000,-0.143962,-0.173171,-0.361395
2.290000,-0.141589,-0.163455,-0.351714
2.341000,-0.130251,-0.158807,-0.337642
2.361000,-0.115090,-0.156758,-0.322225
2.381000,-0.100829,-0.157446,-0.307164
2.401000,-0.085240,-0.158827,-0.292075
2.421000,-0.069594,-0.159242,-0.278698
2.441000,-0.061212,-0.158153,-0.267627
2.461000,-0.060338,-0.155107,-0.259050
2.481000,-0.062995,-0.150578,-0.252802
2.501000,-0.067083,-0.146099,-0.248262
2.521000,-0.071427,-0.141824,-0.244498
2.541000,-0.074981,-0.137776,-0.240420
2.561000,-0.079046,-0.133192,-0.235855
2.581000,-0.081453,-0.128868,-0.230290
2.601000,-0.081338,-0.125377,-0.223830
2.621000,-0.080409,-0.122181,-0.217907
2.641000,-0.080929,-0.118886,-0.212629
2.661000,-0.083083,-0.115690,-0.208094
2.681000,-0.085317,-0.112636,-0.204479
2.701000,-0.086092,-0.109889,-0.201264
2.721000,-0.086552,-0.107346,-0.198493
2.741000,-0.087120,-0.104879,-0.196059
2.761000,-0.086938,-0.102332,-0.193653
2.781000,-0.086559,-0.099902,-0.191183
2.801000,-0.086664,-0.097505,-0.188674
2.821000,-0.086204,-0.095310,-0.186085
2.841000,-0.084833,-0.093265,-0.183182
2.861000,-0.083517,-0.091373,-0.180189
2.881000,-0.082504,-0.089574,-0.177215
2.901000,-0.081288,-0.087834,-0.174348
2.921000,-0.079704,-0.086185,-0.171556
2.941000,-0.077929,-0.084610,-0.168701
2.961000,-0.076231,-0.083140,-0.165939
2.981000,-0.075223,-0.081469,-0.163386
3.001000,-0.074659,-0.079684,-0.161066
3.021000,-0.073764,-0.078161,-0.158952
3.041000,-0.072702,-0.076991,-0.156958
3.061000,-0.071741,-0.076061,-0.155079
3.081000,-0.070830,-0.075227,-0.153326
3.101000,-0.069587,-0.074591,-0.151652
3.121000,-0.067859,-0.074005,-0.150076
3.141000,-0.065924,-0.073424,-0.148616
3.161000,-0.064193,-0.073062,-0.147437
3.181000,-0.062646,-0.072732,-0.146168
3.201000,-0.061244,-0.072244,-0.144741
3.221000,-0.060035,-0.071383,-0.143117
3.241000,-0.059224,-0.069984,-0.141544
3.261000,-0.059035,-0.068182,-0.139887
3.281000,-0.059303,-0.066290,-0.138252
3.301000,-0.059854,-0.064574,-0.136818
3.321000,-0.060786,-0.062822,-0.135339
3.341000,-0.061915,-0.060833,-0.133740
3.361000,-0.063027,-0.059093,-0.132094
3.381000,-0.063923,-0.057497,-0.130281
3.401000,-0.064418,-0.056013,-0.128363
3.421000,-0.064859,-0.054603,-0.126398
3.441000,-0.065254,-0.053518,-0.124661
3.461000,-0.065396,-0.052623,-0.123098
3.481000,-0.065237,-0.051790,-0.121617
3.501000,-0.064962,-0.051121,-0.120158
3.521000,-0.064406,-0.050625,-0.118753
3.541000,-0.063452,-0.050146,-0.117232
3.561000,-0.062257,-0.049707,-0.115648
3.581000,-0.061149,-0.049181,-0.114060
3.601000,-0.060098,-0.048634,-0.112589
3.621000,-0.059203,-0.048032,-0.111281
3.641000,-0.058817,-0.047359,-0.110130
3.661000,-0.058720,-0.046553,-0.109019
3.681000,-0.058762,-0.045548,-0.107935
3.701000,-0.059146,-0.044448,-0.107004
3.721000,-0.059671,-0.043420,-0.106186
3.741000,-0.060056,-0.042547,-0.105476
3.761000,-0.060486,-0.041735,-0.104740
3.781000,-0.060757,-0.040934,-0.103891
3.801000,-0.060641,-0.040256,-0.102954
3.821000,-0.060375,-0.039660,-0.101964
3.841000,-0.060222,-0.039079,-0.100998
3.861000,-0.060023,-0.038463,-0.100021
3.881000,-0.059801,-0.037794,-0.099004
3.901000,-0.059668,-0.037176,-0.098058
3.921000,-0.059456,-0.036570,-0.097081
3.941000,-0.059502,-0.035879,-0.096196
3.961000,-0.059932,-0.035069,-0.095372
3.981000,-0.060637,-0.034243,-0.094603
4.001000,-0.060877,-0.033587,-0.093869
4.021000,-0.060729,-0.032957,-0.093022
4.041000,-0.060640,-0.032386,-0.092163
4.061000,-0.060482,-0.031828,-0.091323
4.081000,-0.060373,-0.031310,-0.090561
4.101000,-0.060160,-0.030858,-0.089838
4.121000,-0.059779,-0.030403,-0.089068
4.141000,-0.059540,-0.029955,-0.088313
4.161000,-0.059403,-0.029473,-0.087594
4.181000,-0.059226,-0.028972,-0.086896
4.201000,-0.059043,-0.028490,-0.086213
4.221000,-0.058865,-0.028011,-0.085564
4.241000,-0.058812,-0.027479,-0.084889
4.261000,-0.058872,-0.026914,-0.084192
4.281000,-0.058829,-0.026379,-0.083482
4.301000,-0.058707,-0.025850,-0.082751
4.321000,-0.058633,-0.025349,-0.082041
4.367000,-0.058449,-0.024840,-0.081339
4.387000,-0.058403,-0.024355,-0.080655
4.407000,-0.058380,-0.023896,-0.080008
4.427000,-0.058178,-0.023491,-0.079389
4.447000,-0.057924,-0.023099,-0.078750
4.467000,-0.057681,-0.022717,-0.078092
4.487000,-0.057508,-0.022282,-0.077452
4.507000,-0.057408,-0.021832,-0.076840
4.527000,-0.057246,-0.021407,-0.076206
4.547000,-0.056996,-0.020972,-0.075547
4.567000,-0.056897,-0.020491,-0.074886
4.587000,-0.056860,-0.019997,-0.074205
4.607000,-0.056756,-0.019543,-0.073568
4.627000,-0.056602,-0.019158,-0.072971
4.647000,-0.056430,-0.018758,-0.072401
4.667000,-0.056369,-0.018351,-0.071873
4.687000,-0.056335,-0.017940,-0.071360
4.707000,-0.056138,-0.017570,-0.070791
4.727000,-0.055945,-0.017204,-0.070225
4.747000,-0.055724,-0.016853,-0.069702
4.767000,-0.055496,-0.016521,-0.069193
4.787000,-0.055362,-0.016196,-0.068685
4.807000,-0.055218,-0.015853,-0.068142
4.827000,-0.055007,-0.015494,-0.067580
4.847000,-0.054815,-0.015114,-0.067050
4.867000,-0.054638,-0.014715,-0.066501
4.887000,-0.054617,-0.014350,-0.065993
4.907000,-0.054576,-0.014021,-0.065490
4.927000,-0.054374,-0.013680,-0.064996
4.947000,-0.054188,-0.013320,-0.064484
4.967000,-0.054070,-0.012983,-0.064004
4.987000,-0.053997,-0.012684,-0.063533
5.007000,-0.053910,-0.012431,-0.063090
5.027000,-0.053724,-0.012160,-0.062639
5.047000,-0.053512,-0.011852,-0.062167
5.067000,-0.053317,-0.011548,-0.061646
5.087000,-0.053123,-0.011219,-0.061114
5.107000,-0.052972,-0.010812,-0.060521
5.127000,-0.053188,-0.010358,-0.060031
5.147000,-0.052983,-0.009912,-0.059574
5.167000,-0.052110,-0.009355,-0.059004
5.187000,-0.051451,-0.008756,-0.058325
5.207000,-0.050644,-0.008382,-0.057813
5.227000,-0.049505,-0.008355,-0.057520
5.247000,-0.048454,-0.008684,-0.057423
5.267000,-0.047765,-0.009247,-0.057431
5.287000,-0.047152,-0.009749,-0.057535
5.307000,-0.046417,-0.010134,-0.057629
5.327000,-0.045444,-0.010680,-0.057717
5.347000,-0.044121,-0.011414,-0.057728
5.367000,-0.042570,-0.012264,-0.057595
5.387000,-0.040893,-0.013090,-0.057403
5.407000,-0.039131,-0.013853,-0.057122
5.427000,-0.036692,-0.014590,-0.056551
5.447000,-0.033968,-0.015118,-0.055638
5.467000,-0.031635,-0.015480,-0.054570
5.487000,-0.029230,-0.016074,-0.053544
5.507000,-0.026720,-0.016717,-0.052563
5.527000,-0.024625,-0.017101,-0.051595
5.547000,-0.023020,-0.017365,-0.050668
5.567000,-0.021886,-0.017560,-0.049944
5.587000,-0.021311,-0.017620,-0.049416
5.607000,-0.021227,-0.017607,-0.049025
5.627000,-0.021537,-0.017438,-0.048719
5.647000,-0.022203,-0.017022,-0.048498
5.667000,-0.022789,-0.016354,-0.048396
5.687000,-0.023463,-0.015457,-0.048511
5.707000,-0.024562,-0.014633,-0.048572
5.727000,-0.025722,-0.014273,-0.048674
5.747000,-0.025568,-0.014367,-0.048712
5.767000,-0.025365,-0.014379,-0.048848
5.787000,-0.025898,-0.014045,-0.048845
5.807000,-0.026577,-0.013459,-0.048774
5.827000,-0.026963,-0.013124,-0.048854
5.847000,-0.027326,-0.012974,-0.048977
5.867000,-0.028252,-0.012800,-0.048984
5.887000,-0.029263,-0.012929,-0.049030
5.907000,-0.028776,-0.013471,-0.048956
5.927000,-0.027464,-0.013838,-0.048206
5.947000,-0.026594,-0.014385,-0.047661
5.967000,-0.025856,-0.015140,-0.047780
5.987000,-0.026027,-0.015676,-0.047756
6.007000,-0.026247,-0.016202,-0.047556
6.027000,-0.025279,-0.016808,-0.047306
6.047000,-0.023995,-0.017147,-0.046823
6.067000,-0.023612,-0.017346,-0.046442
6.087000,-0.025157,-0.017530,-0.046742
6.107000,-0.026779,-0.017653,-0.047230
6.127000,-0.027235,-0.017728,-0.047321
6.147000,-0.027915,-0.018153,-0.047824
6.167000,-0.029384,-0.019009,-0.048679
6.187000,-0.029609,-0.019152,-0.048667
6.207000,-0.030194,-0.019022,-0.048373
6.227000,-0.031567,-0.019392,-0.048692
6.247000,-0.032198,-0.019279,-0.048482
6.267000,-0.031682,-0.018721,-0.048104
6.287000,-0.033024,-0.018305,-0.048388
6.307000,-0.035378,-0.017779,-0.048882
6.327000,-0.036555,-0.017067,-0.048949
6.347000,-0.037382,-0.016626,-0.049208
