accel_time_list,accel_x_list,accel_y_list,accel_z_list
0.016000,0.747500,-2.857500,7.917500
0.036000,0.732500,-2.610000,7.915000
0.056000,0.870000,-2.495000,8.035000
0.076000,0.830000,-2.422500,8.090000
0.096000,0.802500,-2.387500,8.140000
0.116000,0.787500,-2.472500,8.200000
0.136000,0.792500,-2.575000,8.392500
0.156000,0.807500,-2.685000,8.652500
0.176000,0.800000,-2.802500,8.925000
0.196000,0.765000,-2.872500,9.180000
0.216000,0.725000,-2.922500,9.400000
0.236000,0.600000,-3.032500,9.605000
0.256000,0.425000,-3.165000,9.742500
0.276000,0.260000,-3.167500,9.772500
0.296000,0.110000,-3.087500,9.670000
0.316000,-0.060000,-2.942500,9.462500
0.336000,-0.312500,-2.755000,9.172500
0.356000,-0.592500,-2.580000,8.817500
0.376000,-0.900000,-2.415000,8.395000
0.396000,-1.245000,-2.240000,7.905000
0.416000,-1.610000,-2.107500,7.387500
0.436000,-1.982500,-2.032500,6.877500
0.456000,-2.397500,-2.002500,6.387500
0.476000,-2.895000,-2.012500,5.910000
0.496000,-3.420000,-2.055000,5.430000
0.516000,-3.925000,-2.115000,4.975000
0.536000,-4.485000,-2.197500,4.547500
0.556000,-5.175000,-2.325000,4.167500
0.576000,-6.020000,-2.545000,3.852500
0.596000,-7.030000,-2.897500,3.555000
0.616000,-8.090000,-3.370000,3.232500
0.636000,-9.150000,-3.962500,3.040000
0.656000,-10.060000,-4.685000,2.965000
0.676000,-10.540000,-5.495000,2.907500
0.696000,-10.630000,-6.370000,2.815000
0.716000,-10.465000,-7.270000,2.717500
0.736000,-10.125000,-8.090000,2.637500
0.756000,-9.672500,-8.715000,2.592500
0.776000,-9.155000,-9.107500,2.582500
0.796000,-8.600000,-9.362500,2.587500
0.816000,-8.015000,-9.507500,2.605000
0.836000,-7.442500,-9.585000,2.627500
0.856000,-6.992500,-9.692500,2.652500
0.876000,-6.747500,-9.867500,2.680000
0.896000,-6.667500,-10.022500,2.692500
0.916000,-6.705000,-10.117500,2.702500
0.936000,-6.892500,-10.270000,2.727500
0.956000,-7.257500,-10.547500,2.747500
0.976000,-7.672500,-10.812500,2.742500
0.996000,-7.992500,-11.020000,2.745000
1.016000,-8.197500,-11.280000,2.745000
1.036000,-8.327500,-11.490000,2.730000
1.056000,-8.385000,-11.492500,2.727500
1.076000,-8.342500,-11.292500,2.732500
1.096000,-8.222500,-10.965000,2.732500
1.116000,-8.070000,-10.522500,2.697500
1.136000,-7.860000,-9.957500,2.617500
1.156000,-7.560000,-9.265000,2.507500
1.176000,-7.220000,-8.405000,2.397500
1.196000,-6.905000,-7.377500,2.320000
1.216000,-6.640000,-6.252500,2.257500
1.236000,-6.432500,-5.167500,2.190000
1.256000,-6.285000,-4.210000,2.120000
1.276000,-6.202500,-3.435000,2.072500
1.296000,-6.185000,-2.827500,2.047500
1.316000,-6.255000,-2.267500,2.047500
1.336000,-6.395000,-1.767500,2.060000
1.356000,-6.635000,-1.660000,2.085000
1.376000,-7.032500,-2.032500,2.120000
1.396000,-7.602500,-2.632500,2.167500
1.416000,-8.367500,-3.392500,2.267500
1.436000,-9.267500,-4.425000,2.415000
1.456000,-10.120000,-5.560000,2.572500
1.476000,-10.777500,-6.612500,2.737500
1.496000,-11.245000,-7.650000,2.910000
1.516000,-11.477500,-8.637500,3.087500
1.536000,-11.442500,-9.427500,3.267500
1.556000,-11.180000,-9.900000,3.442500
1.576000,-10.760000,-10.215000,3.595000
1.596000,-10.235000,-10.515000,3.715000
1.616000,-9.630000,-10.767500,3.815000
1.636000,-8.980000,-10.900000,3.917500
1.656000,-8.392500,-10.990000,4.020000
1.676000,-7.962500,-11.027500,4.092500
1.696000,-7.680000,-11.050000,4.152500
1.716000,-7.567500,-11.172500,4.202500
1.736000,-7.672500,-11.337500,4.227500
1.756000,-7.990000,-11.502500,4.252500
1.776000,-8.480000,-11.700000,4.265000
1.796000,-8.992500,-11.812500,4.277500
1.816000,-9.402500,-11.932500,4.300000
1.836000,-9.685000,-11.997500,4.307500
1.856000,-9.800000,-11.885000,4.302500
1.876000,-9.745000,-11.615000,4.297500
1.896000,-9.550000,-11.202500,4.275000
1.916000,-9.310000,-10.662500,4.240000
1.936000,-9.070000,-10.000000,4.170000
1.956000,-8.797500,-9.227500,4.065000
1.976000,-8.477500,-8.372500,3.942500
1.996000,-8.162500,-7.435000,3.812500
2.019000,-7.882500,-6.447500,3.682500
2.039000,-7.640000,-5.482500,3.550000
2.059000,-7.437500,-4.620000,3.415000
2.079000,-7.300000,-3.912500,3.295000
2.099000,-7.250000,-3.370000,3.190000
2.119000,-7.282500,-2.937500,3.102500
2.139000,-7.395000,-2.520000,3.025000
2.159000,-7.605000,-2.282500,2.972500
2.179000,-8.092500,-2.710000,2.900000
2.199000,-8.792500,-3.682500,2.807500
2.219000,-9.570000,-4.800000,2.830000
2.239000,-10.415000,-6.147500,2.972500
2.259000,-11.200000,-7.697500,3.150000
2.279000,-11.757500,-9.132500,3.297500
2.299000,-12.010000,-10.462500,3.472500
2.319000,-11.972500,-11.695000,3.650000
2.339000,-11.630000,-12.715000,3.790000
2.359000,-11.032500,-13.385000,3.892500
2.379000,-10.180000,-13.772500,3.972500
2.399000,-9.152500,-13.960000,4.050000
2.419000,-8.212500,-13.987500,4.135000
2.439000,-7.487500,-13.900000,4.222500
2.459000,-6.927500,-13.842500,4.297500
2.479000,-6.555000,-13.762500,4.365000
2.499000,-6.445000,-13.610000,4.435000
2.519000,-6.570000,-13.397500,4.490000
2.539000,-6.872500,-13.252500,4.525000
2.559000,-7.295000,-13.090000,4.550000
2.579000,-7.745000,-12.810000,4.560000
2.599000,-8.067500,-12.390000,4.537500
2.619000,-8.172500,-11.910000,4.522500
2.639000,-8.047500,-11.340000,4.522500
2.659000,-7.732500,-10.647500,4.540000
2.679000,-7.325000,-9.910000,4.560000
2.699000,-6.977500,-9.252500,4.547500
2.719000,-6.737500,-8.645000,4.502500
2.739000,-6.532500,-8.022500,4.422500
2.759000,-6.337500,-7.355000,4.315000
2.779000,-6.215000,-6.635000,4.190000
2.799000,-6.200000,-5.912500,4.065000
2.819000,-6.290000,-5.255000,3.937500
2.839000,-6.422500,-4.732500,3.797500
2.859000,-6.570000,-4.382500,3.647500
2.879000,-6.740000,-4.125000,3.507500
2.899000,-7.002500,-4.027500,3.402500
2.919000,-7.500000,-4.367500,3.335000
2.939000,-8.042500,-4.957500,3.275000
2.959000,-8.517500,-5.472500,3.275000
2.979000,-9.122500,-6.077500,3.352500
2.999000,-9.777500,-6.842500,3.425000
3.019000,-10.295000,-7.642500,3.472500
3.039000,-10.610000,-8.540000,3.532500
3.059000,-10.802500,-9.655000,3.657500
3.079000,-10.770000,-10.770000,3.810000
3.099000,-10.512500,-11.765000,3.942500
3.119000,-10.147500,-12.640000,4.045000
3.139000,-9.795000,-13.372500,4.125000
3.159000,-9.412500,-13.580000,4.195000
3.179000,-8.980000,-13.275000,4.267500
3.199000,-8.545000,-12.772500,4.320000
3.219000,-8.150000,-12.225000,4.345000
3.239000,-7.777500,-11.590000,4.350000
3.259000,-7.460000,-10.780000,4.350000
3.279000,-7.245000,-9.857500,4.360000
3.299000,-7.115000,-9.140000,4.402500
3.319000,-7.080000,-8.545000,4.465000
3.339000,-7.087500,-7.935000,4.525000
3.359000,-7.047500,-7.452500,4.507500
3.379000,-7.322500,-6.497500,4.640000
3.399000,-7.367500,-5.845000,4.837500
3.419000,-7.142500,-6.035000,4.895000
3.439000,-6.942500,-6.562500,4.892500
3.459000,-6.727500,-6.867500,4.910000
3.479000,-6.477500,-6.957500,4.932500
3.499000,-6.185000,-6.967500,4.920000
3.519000,-5.930000,-7.012500,4.860000
3.539000,-5.737500,-7.150000,4.787500
3.559000,-5.572500,-7.247500,4.695000
3.579000,-5.375000,-7.207500,4.617500
3.599000,-5.212500,-7.125000,4.565000
3.619000,-5.160000,-7.157500,4.542500
3.639000,-5.075000,-7.185000,4.537500
3.659000,-4.917500,-7.182500,4.515000
3.679000,-4.762500,-7.275000,4.472500
3.699000,-4.565000,-7.542500,4.415000
3.719000,-4.327500,-7.810000,4.370000
3.739000,-4.082500,-7.995000,4.355000
3.759000,-3.802500,-8.280000,4.345000
3.779000,-3.500000,-8.535000,4.362500
3.799000,-3.150000,-8.590000,4.390000
3.819000,-2.710000,-8.642500,4.407500
3.839000,-2.187500,-8.817500,4.412500
3.859000,-1.640000,-9.075000,4.417500
3.879000,-1.115000,-9.275000,4.430000
3.899000,-0.690000,-9.375000,4.450000
3.919000,-0.410000,-9.420000,4.477500
3.939000,-0.122500,-9.542500,4.442500
3.959000,0.195000,-9.660000,4.392500
3.979000,0.477500,-9.675000,4.337500
3.999000,0.805000,-9.615000,4.277500
4.020000,1.135000,-9.502500,4.210000
4.040000,1.380000,-9.372500,4.127500
4.060000,1.502500,-9.272500,4.040000
4.080000,1.555000,-9.167500,3.945000
4.100000,1.562500,-9.080000,3.865000
4.120000,1.502500,-9.095000,3.807500
4.140000,1.332500,-9.197500,3.767500
4.160000,1.137500,-9.275000,3.757500
4.180000,1.020000,-9.305000,3.775000
4.200000,0.955000,-9.387500,3.805000
4.220000,0.872500,-9.450000,3.852500
4.240000,0.782500,-9.437500,3.922500
4.260000,0.667500,-9.387500,3.997500
4.280000,0.507500,-9.320000,4.060000
4.300000,0.352500,-9.185000,4.102500
4.320000,0.207500,-8.952500,4.107500
4.340000,0.037500,-8.717500,4.110000
4.360000,-0.187500,-8.570000,4.112500
4.380000,-0.395000,-8.470000,4.090000
4.400000,-0.547500,-8.405000,4.057500
4.420000,-0.695000,-8.330000,4.055000
4.440000,-0.862500,-8.230000,4.100000
4.460000,-1.007500,-8.117500,4.147500
4.480000,-1.080000,-8.070000,4.170000
4.500000,-1.120000,-8.125000,4.202500
4.520000,-1.172500,-8.207500,4.260000
4.540000,-1.212500,-8.285000,4.347500
4.560000,-1.222500,-8.477500,4.445000
4.580000,-1.157500,-8.827500,4.540000
4.600000,-1.035000,-9.232500,4.650000
4.620000,-0.925000,-9.557500,4.775000
4.640000,-0.807500,-9.915000,4.867500
4.660000,-0.650000,-10.322500,4.912500
4.680000,-0.460000,-10.630000,4.945000
4.700000,-0.322500,-10.895000,5.000000
4.720000,-0.307500,-11.282500,5.035000
4.740000,-0.317500,-11.557500,5.057500
4.760000,-0.310000,-11.575000,5.062500
4.780000,-0.282500,-11.480000,5.052500
4.800000,-0.277500,-11.342500,5.032500
4.820000,-0.297500,-11.190000,5.002500
4.840000,-0.322500,-11.005000,4.957500
4.860000,-0.362500,-10.697500,4.902500
4.880000,-0.412500,-10.285000,4.852500
4.900000,-0.465000,-9.947500,4.805000
4.920000,-0.507500,-9.752500,4.750000
4.940000,-0.520000,-9.545000,4.710000
4.960000,-0.490000,-9.335000,4.680000
4.980000,-0.447500,-9.297500,4.637500
5.000000,-0.410000,-9.307500,4.612500
5.020000,-0.372500,-9.195000,4.622500
5.040000,-0.330000,-9.025000,4.645000
5.060000,-0.320000,-8.937500,4.647500
5.080000,-0.340000,-9.005000,4.632500
5.100000,-0.360000,-9.155000,4.602500
5.120000,-0.367500,-9.255000,4.572500
5.140000,-0.365000,-9.237500,4.562500
5.160000,-0.367500,-9.192500,4.570000
5.180000,-0.357500,-9.162500,4.585000
5.200000,-0.327500,-9.147500,4.607500
5.220000,-0.275000,-9.145000,4.612500
5.240000,-0.205000,-9.160000,4.610000
5.260000,-0.127500,-9.165000,4.607500
5.280000,-0.030000,-9.155000,4.602500
5.300000,0.085000,-9.167500,4.590000
5.320000,0.190000,-9.232500,4.562500
5.340000,0.315000,-9.287500,4.530000
5.360000,0.482500,-9.357500,4.497500
5.380000,0.652500,-9.505000,4.452500
5.400000,0.775000,-9.715000,4.412500
5.420000,0.887500,-9.822500,4.410000
5.440000,1.015000,-9.835000,4.425000
5.460000,1.132500,-9.850000,4.437500
5.480000,1.212500,-9.862500,4.450000
5.500000,1.267500,-9.822500,4.480000
5.520000,1.315000,-9.722500,4.525000
5.540000,1.350000,-9.607500,4.575000
5.560000,1.362500,-9.522500,4.617500
5.580000,1.355000,-9.432500,4.657500
5.600000,1.267500,-9.287500,4.700000
5.620000,1.252500,-9.147500,4.737500
5.640000,1.282500,-9.030000,4.765000
5.660000,1.267500,-8.920000,4.782500
5.680000,1.277500,-8.860000,4.790000
5.700000,1.307500,-8.875000,4.780000
5.720000,1.380000,-8.742500,4.777500
5.740000,1.370000,-8.670000,4.772500
5.760000,1.437500,-8.657500,4.772500
5.780000,1.510000,-8.635000,4.780000
5.800000,1.572500,-8.612500,4.790000
5.820000,1.630000,-8.650000,4.795000
5.840000,1.675000,-8.717500,4.802500
5.860000,1.712500,-8.740000,4.822500
5.880000,1.755000,-8.747500,4.850000
5.900000,1.817500,-8.732500,4.880000
5.920000,1.887500,-8.717500,4.900000
5.940000,1.945000,-8.700000,4.910000
5.960000,1.997500,-8.667500,4.912500
5.980000,2.025000,-8.662500,4.920000
6.000000,2.075000,-8.655000,4.935000
