gyro_time_list,gyro_x_list,gyro_y_list,gyro_z_list
0.310000,-3.308931,1.216534,1.720815
0.330000,-3.124539,1.147454,1.717084
0.350000,-2.875445,1.071679,1.703093
0.370000,-2.601755,0.996503,1.673151
0.390000,-2.326741,0.926353,1.631020
0.410000,-2.054270,0.864894,1.576560
0.430000,-1.792553,0.811676,1.511247
0.450000,-1.561050,0.764649,1.438092
0.470000,-1.380010,0.721249,1.359222
0.492000,-1.256933,0.678397,1.276323
0.512000,-1.176135,0.637369,1.196124
0.532000,-1.122283,0.596894,1.119956
0.552000,-1.083222,0.556054,1.048000
0.572000,-1.052620,0.515715,0.979620
0.592000,-1.026847,0.476624,0.913694
0.612000,-1.004136,0.438692,0.849043
0.632000,-0.981944,0.402092,0.785680
0.652000,-0.958933,0.367110,0.723460
0.672000,-0.935336,0.334220,0.661834
0.692000,-0.911469,0.301384,0.600883
0.712000,-0.888310,0.267348,0.539500
0.732000,-0.867492,0.231181,0.478120
0.752000,-0.851603,0.194768,0.415082
0.772000,-0.838056,0.159156,0.350617
0.792000,-0.822463,0.126464,0.285967
0.812000,-0.801779,0.096467,0.222319
0.832000,-0.771072,0.069571,0.162663
0.852000,-0.727718,0.044645,0.106642
0.872000,-0.675604,0.019853,0.052547
0.892000,-0.620246,-0.004499,0.001099
0.912000,-0.566460,-0.029724,-0.045848
0.932000,-0.517784,-0.057957,-0.090347
0.952000,-0.473859,-0.088880,-0.133144
0.972000,-0.430972,-0.119548,-0.172649
0.992000,-0.387700,-0.148997,-0.208591
1.012000,-0.346315,-0.178662,-0.242773
1.032000,-0.307338,-0.208985,-0.275166
1.052000,-0.268228,-0.238399,-0.305358
1.072000,-0.228217,-0.265096,-0.334946
1.092000,-0.189599,-0.289932,-0.363872
1.112000,-0.154251,-0.314909,-0.392911
1.132000,-0.115783,-0.339542,-0.423036
1.152000,-0.067280,-0.362307,-0.454124
1.172000,-0.013469,-0.384516,-0.486194
1.192000,0.032159,-0.407393,-0.518739
1.212000,0.062450,-0.430834,-0.548614
1.232000,0.084293,-0.454447,-0.572994
1.252000,0.108168,-0.477248,-0.592133
1.272000,0.136655,-0.499623,-0.606820
1.292000,0.164359,-0.524098,-0.618438
1.312000,0.183370,-0.551586,-0.631075
1.332000,0.196052,-0.580073,-0.646206
1.352000,0.214042,-0.607146,-0.661330
1.372000,0.242811,-0.632352,-0.676484
1.392000,0.271828,-0.656438,-0.692325
1.412000,0.287206,-0.678603,-0.712381
1.432000,0.291462,-0.696684,-0.739881
1.452000,0.300396,-0.709327,-0.770048
1.472000,0.319704,-0.715210,-0.799828
1.492000,0.343138,-0.714478,-0.828245
1.512000,0.360969,-0.710143,-0.855858
1.532000,0.368644,-0.706067,-0.884059
1.552000,0.368073,-0.699026,-0.914700
1.572000,0.364734,-0.685474,-0.944657
1.592000,0.360083,-0.659498,-0.947920
1.612000,0.358370,-0.613667,-0.912551
1.632000,0.361655,-0.549142,-0.845991
1.652000,0.368832,-0.467881,-0.763158
1.672000,0.340649,-0.397075,-0.683781
1.692000,0.289681,-0.523129,-0.789887
1.712000,0.398591,-0.658604,-0.921765
1.732000,0.255896,-0.757104,-0.908271
1.752000,0.097060,-0.605604,-1.010687
1.772000,-0.077066,-0.485552,-1.033238
1.792000,-0.122873,-0.397638,-1.059801
1.812000,-0.157243,-0.369397,-1.028936
1.832000,-0.183475,-0.375998,-0.982573
1.852000,-0.178634,-0.363421,-0.932334
1.872000,-0.126777,-0.341920,-0.896556
1.892000,-0.089257,-0.318860,-0.860418
1.912000,-0.078825,-0.302748,-0.833618
1.932000,-0.074803,-0.285960,-0.812660
1.952000,-0.065052,-0.267592,-0.789152
1.972000,-0.055045,-0.252001,-0.766274
1.992000,-0.061228,-0.241526,-0.741135
2.012000,-0.083906,-0.230435,-0.716850
2.032000,-0.097231,-0.221614,-0.697374
2.052000,-0.091564,-0.215003,-0.685336
2.072000,-0.093579,-0.212212,-0.671561
2.092000,-0.103765,-0.209013,-0.657718
2.112000,-0.112206,-0.201743,-0.642659
2.132000,-0.116515,-0.193854,-0.625563
2.152000,-0.114959,-0.186714,-0.610112
2.172000,-0.114158,-0.180626,-0.596486
2.192000,-0.117697,-0.175825,-0.583612
2.212000,-0.119331,-0.171084,-0.569913
2.232000,-0.114329,-0.164760,-0.555627
2.252000,-0.107609,-0.158125,-0.539963
2.272000,-0.102557,-0.152434,-0.524022
2.292000,-0.100549,-0.148452,-0.509800
2.329000,-0.104929,-0.147364,-0.497335
2.349000,-0.108110,-0.146078,-0.486063
2.369000,-0.108220,-0.143906,-0.474476
2.389000,-0.105451,-0.140893,-0.461971
2.409000,-0.099901,-0.136382,-0.449324
2.429000,-0.095032,-0.131687,-0.436875
2.449000,-0.091676,-0.128001,-0.425403
2.469000,-0.087730,-0.124660,-0.414846
2.493000,-0.082894,-0.120542,-0.404703
2.513000,-0.077496,-0.116044,-0.394551
2.533000,-0.072146,-0.111759,-0.384058
2.553000,-0.067985,-0.108150,-0.373506
2.573000,-0.066244,-0.105566,-0.363743
2.593000,-0.065734,-0.103452,-0.354672
2.613000,-0.065710,-0.101235,-0.345311
2.633000,-0.065079,-0.098839,-0.335449
2.653000,-0.063116,-0.096021,-0.325905
2.673000,-0.059628,-0.092329,-0.317069
2.693000,-0.055622,-0.088867,-0.309241
2.713000,-0.053864,-0.086458,-0.302083
2.733000,-0.053597,-0.084488,-0.295390
2.753000,-0.052483,-0.082342,-0.289127
2.773000,-0.050947,-0.080250,-0.283260
2.793000,-0.050069,-0.078485,-0.277680
2.813000,-0.049680,-0.076868,-0.272270
2.833000,-0.049203,-0.075160,-0.267064
2.853000,-0.048629,-0.073384,-0.262082
2.873000,-0.048887,-0.071940,-0.257228
2.893000,-0.049513,-0.070603,-0.252585
2.913000,-0.049413,-0.068969,-0.247988
2.933000,-0.048738,-0.067140,-0.243380
2.953000,-0.048487,-0.065577,-0.239171
2.973000,-0.048942,-0.064265,-0.235198
2.993000,-0.049468,-0.062987,-0.231252
3.013000,-0.049597,-0.061561,-0.227383
3.033000,-0.049645,-0.060351,-0.224060
3.053000,-0.050420,-0.059573,-0.221052
3.073000,-0.051381,-0.058829,-0.217954
3.093000,-0.051464,-0.057718,-0.214637
3.113000,-0.051186,-0.056473,-0.211279
3.133000,-0.051124,-0.055346,-0.207892
3.153000,-0.051036,-0.054165,-0.204446
3.173000,-0.051006,-0.052914,-0.201021
3.193000,-0.051047,-0.051818,-0.197692
3.213000,-0.050880,-0.050806,-0.194410
3.233000,-0.050448,-0.049639,-0.191126
3.253000,-0.049953,-0.048375,-0.187966
3.273000,-0.049739,-0.047346,-0.185136
3.293000,-0.050040,-0.046612,-0.182516
3.313000,-0.050181,-0.045785,-0.179839
3.333000,-0.050115,-0.044899,-0.177195
3.353000,-0.050073,-0.044077,-0.174716
3.373000,-0.050035,-0.043319,-0.172354
3.393000,-0.050073,-0.042583,-0.169966
3.413000,-0.050151,-0.041796,-0.167572
3.433000,-0.049960,-0.040977,-0.165247
3.453000,-0.049577,-0.040135,-0.162969
3.473000,-0.049301,-0.039327,-0.160758
3.493000,-0.049222,-0.038541,-0.158519
3.513000,-0.049069,-0.037744,-0.156309
3.533000,-0.048729,-0.036966,-0.154213
3.553000,-0.048493,-0.036201,-0.152197
3.573000,-0.048682,-0.035586,-0.150347
3.593000,-0.048990,-0.035004,-0.148498
3.613000,-0.048837,-0.034334,-0.146714
3.633000,-0.048541,-0.033672,-0.144994
3.653000,-0.048494,-0.033078,-0.143293
3.673000,-0.048639,-0.032492,-0.141570
3.693000,-0.048638,-0.031870,-0.139848
3.713000,-0.048390,-0.031226,-0.138274
3.733000,-0.048375,-0.030680,-0.136799
3.753000,-0.048650,-0.030202,-0.135352
3.773000,-0.048873,-0.029662,-0.133891
3.793000,-0.048806,-0.029111,-0.132456
3.813000,-0.048742,-0.028607,-0.131109
3.833000,-0.048942,-0.028196,-0.129817
3.853000,-0.049145,-0.027765,-0.128595
3.873000,-0.049186,-0.027291,-0.127326
3.893000,-0.049213,-0.026840,-0.126068
3.913000,-0.049219,-0.026415,-0.124905
3.933000,-0.049192,-0.025986,-0.123708
3.953000,-0.049197,-0.025532,-0.122515
3.973000,-0.049121,-0.025038,-0.121358
3.993000,-0.048919,-0.024550,-0.120217
4.013000,-0.048712,-0.024029,-0.118980
4.033000,-0.048551,-0.023508,-0.117755
4.053000,-0.048406,-0.022986,-0.116613
4.073000,-0.048345,-0.022505,-0.115483
4.093000,-0.048320,-0.022002,-0.114285
4.113000,-0.048267,-0.021511,-0.113153
4.133000,-0.048100,-0.021062,-0.112178
4.153000,-0.048006,-0.020669,-0.111328
4.173000,-0.048256,-0.020389,-0.110560
4.193000,-0.048574,-0.020123,-0.109804
4.213000,-0.048874,-0.019803,-0.108948
4.233000,-0.049233,-0.019532,-0.108083
4.253000,-0.049717,-0.019254,-0.107242
4.273000,-0.050147,-0.019097,-0.106530
4.293000,-0.050273,-0.018897,-0.105766
4.313000,-0.049976,-0.018515,-0.104853
4.350000,-0.049780,-0.018158,-0.103855
4.370000,-0.049470,-0.017824,-0.102951
4.390000,-0.048738,-0.017453,-0.102030
4.410000,-0.047702,-0.017009,-0.101087
4.430000,-0.046665,-0.016554,-0.100042
4.450000,-0.045757,-0.016101,-0.099010
4.470000,-0.045211,-0.015776,-0.098124
4.490000,-0.045195,-0.015463,-0.097139
4.510000,-0.045266,-0.015086,-0.096139
4.530000,-0.045349,-0.014697,-0.095234
4.550000,-0.045884,-0.014318,-0.094317
4.570000,-0.046757,-0.014010,-0.093318
4.590000,-0.047697,-0.013792,-0.092434
4.610000,-0.048387,-0.013658,-0.091798
4.630000,-0.048926,-0.013534,-0.091172
4.650000,-0.049405,-0.013396,-0.090556
4.670000,-0.049671,-0.013107,-0.089926
4.690000,-0.049839,-0.012848,-0.089421
4.710000,-0.049798,-0.012700,-0.088961
4.730000,-0.049686,-0.012456,-0.088269
4.750000,-0.049368,-0.011977,-0.087525
4.770000,-0.049006,-0.011501,-0.086671
4.790000,-0.048554,-0.011209,-0.085929
4.810000,-0.047982,-0.010881,-0.085228
4.830000,-0.047757,-0.010518,-0.084541
4.850000,-0.047754,-0.010173,-0.083895
4.870000,-0.047560,-0.009878,-0.083309
4.890000,-0.047423,-0.009663,-0.082745
4.910000,-0.047278,-0.009569,-0.082591
4.930000,-0.047267,-0.009443,-0.082322
4.950000,-0.047732,-0.009460,-0.082040
4.970000,-0.047816,-0.009420,-0.081826
4.990000,-0.047566,-0.009214,-0.081442
5.010000,-0.047402,-0.009051,-0.081180
5.030000,-0.047583,-0.008950,-0.080875
5.050000,-0.047801,-0.008829,-0.080430
5.070000,-0.047859,-0.008602,-0.080141
5.090000,-0.048584,-0.008468,-0.080006
5.110000,-0.050052,-0.008559,-0.079963
5.130000,-0.051254,-0.008580,-0.079609
5.150000,-0.051380,-0.008456,-0.079118
5.170000,-0.051103,-0.008283,-0.078798
5.190000,-0.051504,-0.008083,-0.078292
5.210000,-0.052265,-0.007944,-0.077724
5.230000,-0.052246,-0.007668,-0.077044
5.250000,-0.051441,-0.007261,-0.076309
5.270000,-0.050804,-0.006738,-0.075573
5.290000,-0.050365,-0.006259,-0.074834
5.310000,-0.049413,-0.005612,-0.073947
5.330000,-0.048084,-0.004978,-0.073169
5.350000,-0.047224,-0.004581,-0.072514
5.370000,-0.046842,-0.004378,-0.071879
5.390000,-0.046371,-0.004125,-0.071251
5.410000,-0.045694,-0.003704,-0.070677
5.430000,-0.044995,-0.003225,-0.070051
5.450000,-0.044268,-0.002734,-0.069295
5.470000,-0.043090,-0.002218,-0.068507
5.490000,-0.041753,-0.001758,-0.067789
5.510000,-0.041278,-0.001470,-0.067206
5.530000,-0.041731,-0.001236,-0.066471
5.550000,-0.042577,-0.001030,-0.065836
5.570000,-0.043448,-0.000918,-0.065366
5.590000,-0.044368,-0.000841,-0.064958
5.610000,-0.045066,-0.000872,-0.064547
5.630000,-0.045154,-0.000800,-0.064153
5.650000,-0.045348,-0.000597,-0.063477
5.670000,-0.045804,-0.000471,-0.062698
5.690000,-0.046299,-0.000205,-0.061753
5.710000,-0.046181,0.000043,-0.061130
5.730000,-0.045774,0.000155,-0.060715
5.750000,-0.045334,0.000256,-0.060377
5.770000,-0.044818,0.000562,-0.059839
5.790000,-0.044376,0.001027,-0.059121
5.810000,-0.045129,0.001122,-0.058551
5.830000,-0.046278,0.001260,-0.057975
5.850000,-0.045374,0.001861,-0.057246
5.870000,-0.043119,0.002494,-0.056679
5.890000,-0.042276,0.002704,-0.056187
5.910000,-0.042865,0.002807,-0.055564
5.930000,-0.043482,0.002970,-0.055005
5.950000,-0.044032,0.002925,-0.054678
5.970000,-0.044072,0.003024,-0.054272
5.990000,-0.043340,0.003423,-0.053760
6.010000,-0.042580,0.003996,-0.052987
6.030000,-0.042700,0.004216,-0.052430
6.050000,-0.043317,0.004272,-0.051954
6.070000,-0.043259,0.004478,-0.051336
6.090000,-0.043114,0.004709,-0.050746
6.110000,-0.042887,0.005045,-0.050248
6.130000,-0.042976,0.005211,-0.050014
6.150000,-0.043098,0.005213,-0.049692
6.170000,-0.042719,0.005370,-0.049410
6.190000,-0.042536,0.005588,-0.049049
6.210000,-0.042480,0.005819,-0.048737
6.230000,-0.042573,0.005959,-0.048435
6.250000,-0.041765,0.006206,-0.048004
6.270000,-0.040297,0.006606,-0.047522
6.290000,-0.039532,0.006852,-0.047098
6.310000,-0.039454,0.006845,-0.046796
6.330000,-0.038813,0.007011,-0.046433
