accel_time_list,accel_x_list,accel_y_list,accel_z_list
0.019000,0.816423,-10.905589,-3.608062
0.039000,1.681927,-10.363302,-3.792416
0.059000,2.167946,-9.744526,-3.855620
0.079000,2.299022,-9.786652,-3.916635
0.099000,2.380053,-9.638653,-3.914286
0.119000,2.466371,-9.432121,-3.899102
0.139000,2.530307,-9.273851,-3.869029
0.159000,2.598962,-9.174214,-3.843752
0.179000,2.659671,-9.112075,-3.809355
0.199000,2.723455,-9.037404,-3.794603
0.219000,2.748258,-8.983887,-3.793303
0.239000,2.763097,-8.933568,-3.782763
0.259000,2.762323,-8.868519,-3.757305
0.279000,2.761838,-8.792773,-3.731815
0.299000,2.793532,-8.723255,-3.723608
0.319000,2.838076,-8.659768,-3.733133
0.339000,2.859871,-8.602326,-3.739389
0.359000,2.871102,-8.558393,-3.717668
0.379000,2.874863,-8.503901,-3.685748
0.399000,2.882944,-8.459352,-3.695124
0.419000,2.873610,-8.440559,-3.696249
0.439000,2.868064,-8.433398,-3.720092
0.459000,2.862689,-8.464336,-3.769296
0.479000,2.860040,-8.507555,-3.831145
0.499000,2.865624,-8.537216,-3.893131
0.519000,2.872676,-8.519423,-3.943919
0.539000,2.875899,-8.473360,-3.970889
0.559000,2.883216,-8.416768,-3.987370
0.579000,2.890368,-8.383512,-4.007335
0.599000,2.898031,-8.386065,-4.047598
0.619000,2.908320,-8.389127,-4.089362
0.639000,2.913467,-8.362771,-4.109675
0.659000,2.919052,-8.320819,-4.114612
0.679000,2.928183,-8.292143,-4.125304
0.699000,2.938223,-8.280271,-4.141403
0.719000,2.948061,-8.272059,-4.157845
0.739000,2.958255,-8.262345,-4.172455
0.759000,2.970367,-8.253254,-4.187050
0.779000,2.979877,-8.247872,-4.197874
0.799000,2.984001,-8.241224,-4.214544
0.819000,2.983180,-8.234333,-4.229815
0.839000,2.985400,-8.222311,-4.239175
0.859000,2.987221,-8.204115,-4.233635
0.879000,2.986953,-8.184009,-4.226230
0.899000,2.988374,-8.176692,-4.230398
0.919000,2.990661,-8.184832,-4.240672
0.939000,2.993757,-8.194757,-4.248382
0.959000,2.996985,-8.193400,-4.251048
0.979000,2.998846,-8.180779,-4.254691
0.999000,3.001032,-8.168340,-4.254794
1.019000,3.004167,-8.165014,-4.259356
1.039000,3.008729,-8.167688,-4.268725
1.059000,3.014880,-8.163167,-4.273284
1.079000,3.019827,-8.156343,-4.276819
1.099000,3.023815,-8.150031,-4.281093
1.119000,3.028293,-8.144055,-4.282955
1.139000,3.033772,-8.142921,-4.282866
1.159000,3.038103,-8.144144,-4.284947
1.179000,3.041598,-8.142588,-4.288399
1.199000,3.044000,-8.136952,-4.291418
1.219000,3.045069,-8.132809,-4.296169
1.239000,3.048894,-8.127003,-4.298479
1.259000,3.052436,-8.119958,-4.298887
1.279000,3.055071,-8.113351,-4.300280
1.299000,3.058173,-8.105898,-4.294130
1.319000,3.063387,-8.095428,-4.293663
1.339000,3.066579,-8.099696,-4.301601
1.359000,3.071297,-8.105656,-4.308060
1.379000,3.076814,-8.104794,-4.314568
1.399000,3.078907,-8.100021,-4.317901
1.419000,3.081338,-8.091777,-4.322914
1.439000,3.084023,-8.086752,-4.326442
1.459000,3.086774,-8.085172,-4.331860
1.479000,3.092171,-8.085808,-4.337897
1.499000,3.097881,-8.081527,-4.342623
1.519000,3.102256,-8.073036,-4.346476
1.539000,3.106588,-8.066518,-4.349909
1.559000,3.110645,-8.063552,-4.353598
1.579000,3.114404,-8.063483,-4.357842
1.599000,3.118169,-8.063139,-4.361810
1.619000,3.121196,-8.060171,-4.365240
1.639000,3.124021,-8.056470,-4.367422
1.659000,3.127441,-8.054600,-4.368138
1.679000,3.130905,-8.054329,-4.369320
1.699000,3.134444,-8.052536,-4.370600
1.719000,3.138025,-8.050370,-4.370774
1.739000,3.141374,-8.046670,-4.368856
1.759000,3.145278,-8.043937,-4.366953
1.779000,3.149573,-8.040709,-4.365583
1.799000,3.154132,-8.035556,-4.365059
1.819000,3.158479,-8.030726,-4.363358
1.839000,3.163346,-8.028965,-4.365316
1.859000,3.168345,-8.030715,-4.369674
1.879000,3.171334,-8.031802,-4.372038
1.899000,3.173043,-8.031607,-4.372350
1.919000,3.175190,-8.034710,-4.376100
1.939000,3.178539,-8.045620,-4.379803
1.959000,3.180309,-8.061483,-4.379877
1.979000,3.180980,-8.072812,-4.375831
1.999000,3.184275,-8.076243,-4.361185
2.051000,3.183608,-8.069304,-4.342744
2.071000,3.181792,-8.056436,-4.319493
2.091000,3.180851,-8.046479,-4.297128
2.111000,3.180421,-8.058178,-4.276246
2.131000,3.179898,-8.078434,-4.260419
2.151000,3.177533,-8.088410,-4.244855
2.171000,3.174557,-8.092084,-4.230123
2.191000,3.171809,-8.102818,-4.217193
2.211000,3.169831,-8.118384,-4.205273
2.231000,3.167816,-8.132804,-4.197445
2.251000,3.165789,-8.142831,-4.190172
2.271000,3.164306,-8.144667,-4.179017
2.291000,3.162660,-8.143706,-4.165270
2.311000,3.160793,-8.146395,-4.153131
2.331000,3.159113,-8.151056,-4.142348
2.351000,3.157593,-8.153110,-4.134586
2.371000,3.156352,-8.153579,-4.127202
2.391000,3.155003,-8.156984,-4.121349
2.411000,3.154745,-8.162415,-4.116973
2.431000,3.154849,-8.168404,-4.113171
2.451000,3.154377,-8.175149,-4.110009
2.471000,3.155155,-8.181150,-4.110715
2.491000,3.155686,-8.187774,-4.110849
2.511000,3.155924,-8.190707,-4.108697
2.531000,3.155944,-8.192323,-4.103962
2.551000,3.154839,-8.197489,-4.102925
2.571000,3.151351,-8.198513,-4.099095
2.591000,3.149525,-8.194186,-4.094469
2.611000,3.147551,-8.196357,-4.091889
2.631000,3.145212,-8.198853,-4.089783
2.651000,3.142371,-8.195678,-4.084338
2.671000,3.138648,-8.192125,-4.081943
2.691000,3.136782,-8.193259,-4.078046
2.711000,3.135174,-8.199457,-4.071801
2.731000,3.130757,-8.206335,-4.060766
2.751000,3.129784,-8.200359,-4.053839
2.771000,3.129587,-8.197436,-4.057710
2.791000,3.130374,-8.205556,-4.063396
2.811000,3.132900,-8.209859,-4.068377
2.831000,3.131666,-8.215341,-4.068730
2.851000,3.133461,-8.221461,-4.068984
2.871000,3.133084,-8.225701,-4.068445
2.891000,3.132255,-8.221352,-4.064056
2.911000,3.131099,-8.213885,-4.056911
2.931000,3.129644,-8.214490,-4.053020
2.951000,3.128299,-8.222199,-4.051827
2.971000,3.127111,-8.225618,-4.050119
2.991000,3.125385,-8.227423,-4.049362
3.011000,3.124106,-8.229424,-4.046672
3.031000,3.122888,-8.231790,-4.044800
3.051000,3.121347,-8.233077,-4.041534
3.071000,3.119750,-8.231503,-4.037535
3.091000,3.117068,-8.229058,-4.034581
3.111000,3.114412,-8.228912,-4.031560
3.131000,3.112573,-8.233246,-4.030677
3.151000,3.111135,-8.238445,-4.029516
3.171000,3.109233,-8.240648,-4.026163
3.191000,3.107877,-8.238280,-4.020761
3.211000,3.108210,-8.233565,-4.018836
3.231000,3.108013,-8.233207,-4.019804
3.251000,3.107363,-8.233809,-4.018824
3.271000,3.107558,-8.230480,-4.017086
3.291000,3.106410,-8.232404,-4.017904
3.311000,3.105560,-8.235242,-4.019671
3.331000,3.103379,-8.236112,-4.021397
3.351000,3.101937,-8.237212,-4.025691
3.371000,3.099648,-8.238111,-4.027620
3.391000,3.099393,-8.236629,-4.030296
3.411000,3.099763,-8.239042,-4.035962
3.431000,3.098813,-8.239395,-4.037620
3.451000,3.099141,-8.230096,-4.035839
3.471000,3.101214,-8.222350,-4.040563
3.491000,3.103194,-8.222631,-4.047347
3.511000,3.105250,-8.219413,-4.052818
3.531000,3.107213,-8.209452,-4.056559
3.551000,3.109109,-8.200141,-4.061507
3.571000,3.111418,-8.196789,-4.069997
3.591000,3.114229,-8.195841,-4.082329
3.611000,3.114619,-8.191382,-4.092502
3.631000,3.110240,-8.184000,-4.095032
3.651000,3.104204,-8.187442,-4.089899
3.671000,3.102827,-8.200761,-4.080388
3.691000,3.095980,-8.206907,-4.069894
3.711000,3.084628,-8.212011,-4.065875
3.731000,3.079807,-8.217543,-4.064337
3.751000,3.077835,-8.216315,-4.069280
3.771000,3.074662,-8.208396,-4.079104
3.791000,3.073029,-8.205728,-4.082917
3.811000,3.073902,-8.209909,-4.083172
3.831000,3.070624,-8.214433,-4.080145
3.851000,3.064171,-8.213164,-4.075017
3.871000,3.059531,-8.208342,-4.073723
3.891000,3.056158,-8.207685,-4.076082
3.911000,3.054925,-8.213068,-4.084641
3.931000,3.054255,-8.219403,-4.094049
3.951000,3.053449,-8.221317,-4.096109
3.971000,3.049514,-8.220531,-4.095179
3.991000,3.046480,-8.221117,-4.093899
4.011000,3.044985,-8.221554,-4.087628
4.031000,3.043194,-8.217102,-4.079792
4.083000,3.040415,-8.218896,-4.080893
4.103000,3.034049,-8.217487,-4.076164
4.123000,3.024945,-8.216883,-4.070310
4.143000,3.019164,-8.220019,-4.065735
4.163000,3.015213,-8.223700,-4.063984
4.183000,3.009266,-8.230024,-4.064476
4.203000,3.006516,-8.236382,-4.063001
4.223000,3.003768,-8.240784,-4.061396
4.243000,2.999444,-8.241311,-4.062322
4.263000,2.995427,-8.237978,-4.061873
4.283000,2.990995,-8.235852,-4.060208
4.303000,2.985530,-8.237674,-4.057626
4.323000,2.981029,-8.240555,-4.055548
4.343000,2.977507,-8.244987,-4.055598
4.363000,2.975649,-8.248775,-4.058569
4.383000,2.971534,-8.254059,-4.060959
4.403000,2.963151,-8.259889,-4.058274
4.423000,2.952075,-8.267312,-4.051497
4.443000,2.944556,-8.272626,-4.041580
4.463000,2.938095,-8.275229,-4.031067
4.483000,2.931938,-8.279913,-4.021810
4.503000,2.927710,-8.289626,-4.012956
4.523000,2.924530,-8.301780,-4.005028
4.543000,2.918197,-8.311513,-3.998329
4.563000,2.908791,-8.314541,-3.985903
4.583000,2.900078,-8.309518,-3.968693
4.603000,2.893056,-8.308208,-3.951320
4.623000,2.886798,-8.316752,-3.938119
4.643000,2.882016,-8.331939,-3.930102
4.663000,2.877545,-8.344747,-3.921878
4.683000,2.873334,-8.348736,-3.912658
4.703000,2.866771,-8.348207,-3.901329
4.723000,2.861375,-8.348522,-3.890304
4.743000,2.855865,-8.353909,-3.880299
4.763000,2.850507,-8.363026,-3.871256
4.783000,2.844986,-8.374708,-3.858999
4.803000,2.840143,-8.388741,-3.845357
4.823000,2.834438,-8.401627,-3.829169
4.843000,2.826660,-8.413474,-3.812928
4.863000,2.819056,-8.420295,-3.797496
4.883000,2.811623,-8.416322,-3.779752
4.903000,2.804288,-8.412795,-3.763406
4.923000,2.797003,-8.421155,-3.751797
4.943000,2.788737,-8.440995,-3.742076
4.963000,2.783978,-8.462625,-3.737528
4.983000,2.782762,-8.474676,-3.733384
5.003000,2.784431,-8.473224,-3.721237
5.023000,2.780121,-8.478969,-3.708493
5.043000,2.779063,-8.511542,-3.687306
5.063000,2.771959,-8.550567,-3.653785
5.083000,2.763058,-8.553719,-3.609729
5.103000,2.754700,-8.538499,-3.563336
5.123000,2.742285,-8.541484,-3.526099
5.143000,2.733944,-8.563520,-3.488994
5.163000,2.722071,-8.579950,-3.450559
5.183000,2.715344,-8.587046,-3.413980
5.203000,2.710649,-8.589474,-3.384394
5.223000,2.707125,-8.601095,-3.352000
5.243000,2.701003,-8.611475,-3.315847
5.263000,2.693889,-8.618183,-3.277886
5.283000,2.688737,-8.619844,-3.241186
5.303000,2.686534,-8.612319,-3.211385
5.323000,2.687322,-8.597303,-3.191559
5.343000,2.690136,-8.581792,-3.182669
5.363000,2.695700,-8.572732,-3.180645
5.383000,2.701592,-8.570562,-3.183752
5.403000,2.708143,-8.570401,-3.191772
5.423000,2.715849,-8.570266,-3.203643
5.443000,2.723431,-8.572502,-3.217914
5.463000,2.728781,-8.577086,-3.230859
5.483000,2.733408,-8.582822,-3.239463
5.503000,2.736361,-8.590679,-3.243708
5.523000,2.737632,-8.599175,-3.245314
5.543000,2.737669,-8.605265,-3.245078
5.563000,2.736772,-8.608611,-3.242759
5.583000,2.735573,-8.611997,-3.239208
5.603000,2.733812,-8.616809,-3.235591
5.623000,2.732211,-8.621788,-3.233196
5.643000,2.730148,-8.625664,-3.231220
5.663000,2.728009,-8.627897,-3.230099
5.683000,2.726108,-8.628695,-3.230017
5.703000,2.724321,-8.628959,-3.232102
5.723000,2.724061,-8.629723,-3.234810
5.743000,2.723587,-8.629186,-3.236834
5.763000,2.723717,-8.627984,-3.240578
5.783000,2.723917,-8.625765,-3.244257
5.803000,2.724499,-8.623424,-3.245916
5.823000,2.724811,-8.622135,-3.247593
5.843000,2.725431,-8.619328,-3.251357
5.863000,2.723077,-8.615351,-3.254454
5.883000,2.720459,-8.614000,-3.254086
5.903000,2.719255,-8.612854,-3.253268
5.923000,2.716268,-8.605806,-3.255044
5.943000,2.712903,-8.597153,-3.259341
5.963000,2.709525,-8.590070,-3.265605
5.983000,2.707258,-8.582962,-3.270610
6.003000,2.704917,-8.578798,-3.276690
6.023000,2.702863,-8.581811,-3.286635
6.043000,2.700447,-8.596430,-3.293465
6.063000,2.696619,-8.611788,-3.291152
