gyro_time_list,gyro_x_list,gyro_y_list,gyro_z_list
0.071,-1.507378,0.771142,0.986711
0.091,-1.687707,0.786464,0.971722
0.111,-1.911907,0.792419,0.957524
0.131,-2.165636,0.787628,0.949922
0.151,-2.391031,0.787235,0.955398
0.171,-2.535666,0.790707,0.979767
0.191,-2.588127,0.77733,1.031605
0.211,-2.568289,0.747152,1.103274
0.231,-2.497241,0.722113,1.189541
0.251,-2.391599,0.706102,1.284428
0.271,-2.267998,0.698139,1.383969
0.291,-2.146616,0.695605,1.484123
0.311,-2.041318,0.699612,1.58206
0.331,-1.957448,0.709709,1.67712
0.351,-1.89761,0.723505,1.76929
0.371,-1.861425,0.739464,1.857889
0.391,-1.847011,0.754198,1.943327
0.411,-1.852947,0.766831,2.025019
0.431,-1.873452,0.777881,2.100278
0.451,-1.897465,0.786009,2.164685
0.471,-1.918872,0.785806,2.216904
0.491,-1.937052,0.778676,2.253192
0.511,-1.952478,0.764699,2.269892
0.531,-1.963188,0.741819,2.265782
0.551,-1.969619,0.709683,2.241763
0.571,-1.974276,0.669147,2.199573
0.591,-1.983385,0.621312,2.139452
0.611,-2.004276,0.566008,2.060597
0.631,-2.034446,0.50418,1.962156
0.651,-2.063652,0.438686,1.84471
0.671,-2.087399,0.371549,1.706521
0.691,-2.105869,0.303402,1.54534
0.711,-2.119411,0.236311,1.359622
0.731,-2.125602,0.174242,1.150725
0.751,-2.11443,0.120146,0.920307
0.771,-2.084175,0.072083,0.667514
0.791,-2.036675,0.030125,0.3977
0.811,-1.972302,-0.002364,0.116023
0.831,-1.89661,-0.024013,-0.180369
0.851,-1.814853,-0.036239,-0.4888
0.871,-1.727662,-0.039707,-0.798047
0.891,-1.631853,-0.034153,-1.100602
0.911,-1.53215,-0.02192,-1.389505
0.931,-1.433905,-0.006086,-1.663143
0.951,-1.334045,0.014682,-1.897735
0.971,-1.228854,0.038276,-2.084143
0.991,-1.119644,0.062903,-2.231032
1.011,-1.005812,0.088153,-2.341141
1.031,-0.899467,0.116252,-2.409597
1.051,-0.824964,0.149186,-2.438256
1.071,-0.783324,0.187964,-2.428449
1.091,-0.751668,0.229967,-2.38401
1.111,-0.716185,0.2746,-2.306819
1.131,-0.698866,0.317699,-2.235474
1.151,-0.699994,0.354406,-2.168172
1.171,-0.688229,0.386473,-2.097328
1.191,-0.64398,0.417822,-2.01427
1.211,-0.587189,0.448035,-1.920527
1.231,-0.535399,0.473601,-1.822794
1.251,-0.48612,0.494735,-1.728408
1.271,-0.439342,0.512516,-1.640091
1.291,-0.415422,0.527432,-1.572289
1.311,-0.459691,0.534197,-1.531024
1.331,-0.531921,0.533452,-1.495184
1.351,-0.567645,0.528835,-1.45498
1.371,-0.559145,0.522988,-1.415112
1.391,-0.538149,0.514716,-1.37284
1.411,-0.528584,0.504897,-1.330514
1.431,-0.531602,0.493461,-1.289669
1.451,-0.541246,0.48014,-1.250117
1.471,-0.556281,0.465624,-1.207095
1.491,-0.574901,0.451729,-1.173768
1.511,-0.596922,0.437803,-1.140907
1.531,-0.606282,0.423528,-1.107092
1.551,-0.605857,0.410425,-1.073265
1.571,-0.602375,0.39955,-1.042567
1.591,-0.597223,0.389324,-1.008553
1.611,-0.590503,0.380828,-0.978258
1.631,-0.585512,0.374467,-0.954021
1.651,-0.568309,0.368406,-0.924085
1.671,-0.543977,0.363235,-0.898669
1.691,-0.522725,0.359004,-0.875278
1.711,-0.503608,0.354946,-0.851817
1.731,-0.485523,0.351733,-0.832845
1.751,-0.467869,0.348574,-0.811803
1.771,-0.454935,0.345937,-0.792701
1.791,-0.448175,0.344298,-0.774279
1.811,-0.443634,0.341578,-0.754305
1.831,-0.433281,0.341207,-0.734525
1.851,-0.419403,0.3407,-0.715884
1.871,-0.405024,0.340316,-0.694601
1.891,-0.397548,0.339448,-0.674677
1.911,-0.395708,0.338069,-0.653553
1.931,-0.386572,0.337395,-0.63281
1.951,-0.366032,0.337232,-0.611581
1.971,-0.345017,0.336688,-0.590846
1.991,-0.334638,0.334261,-0.567072
2.011,-0.330033,0.330976,-0.54495
2.031,-0.322249,0.327223,-0.519737
2.051,-0.311424,0.323027,-0.499835
2.128,-0.304573,0.316635,-0.48101
2.148,-0.29882,0.308786,-0.454139
2.168,-0.295447,0.299689,-0.433711
2.188,-0.290407,0.290138,-0.409625
2.208,-0.287986,0.279066,-0.386445
2.228,-0.285159,0.268008,-0.366534
2.248,-0.281152,0.256473,-0.341829
2.268,-0.277766,0.245083,-0.321396
2.288,-0.275258,0.23374,-0.299851
2.308,-0.273946,0.224287,-0.28424
2.328,-0.275579,0.216567,-0.272271
2.348,-0.277016,0.210847,-0.260795
2.368,-0.274743,0.207174,-0.250678
2.388,-0.270972,0.204346,-0.243005
2.408,-0.268961,0.201603,-0.237147
2.428,-0.267507,0.197922,-0.236185
2.448,-0.25595,0.194151,-0.237601
2.468,-0.233094,0.190396,-0.242077
2.488,-0.215257,0.185424,-0.251343
2.508,-0.207194,0.18012,-0.266954
2.528,-0.198202,0.173574,-0.286126
2.548,-0.18047,0.164459,-0.305254
2.568,-0.149258,0.154156,-0.32549
2.588,-0.10023,0.143344,-0.345993
2.608,-0.031199,0.13016,-0.368714
2.628,0.067546,0.115532,-0.393214
2.648,0.177644,0.102042,-0.418559
2.668,0.299091,0.090072,-0.44486
2.688,0.414053,0.080728,-0.476363
2.708,0.493214,0.076501,-0.515987
2.728,0.539626,0.079073,-0.561491
2.748,0.559969,0.089722,-0.610877
2.768,0.56062,0.108912,-0.661842
2.788,0.547352,0.137919,-0.711691
2.808,0.521882,0.178516,-0.757614
2.828,0.485876,0.232194,-0.79443
2.848,0.444728,0.301601,-0.818388
2.868,0.407168,0.390582,-0.827746
2.888,0.377324,0.488702,-0.821691
2.908,0.352415,0.595795,-0.804213
2.928,0.337056,0.711506,-0.779261
2.948,0.340171,0.835205,-0.742306
2.968,0.352674,0.965978,-0.696457
2.988,0.342482,1.102658,-0.651794
3.008,0.29894,1.243867,-0.60559
3.028,0.24074,1.388081,-0.552307
3.048,0.175713,1.521424,-0.494729
3.068,0.116471,1.638788,-0.432643
3.088,0.074166,1.725107,-0.36995
3.108,0.029952,1.777986,-0.312255
3.128,-0.052947,1.799754,-0.265838
3.148,-0.207063,1.769586,-0.240286
3.168,-0.373489,1.676507,-0.232092
3.188,-0.44724,1.571659,-0.220044
3.208,-0.422952,1.495819,-0.209994
3.228,-0.372321,1.44796,-0.212298
3.248,-0.330714,1.405771,-0.223967
3.268,-0.301526,1.364161,-0.238525
3.288,-0.305614,1.328399,-0.266644
3.308,-0.366295,1.284886,-0.305463
3.328,-0.452172,1.229981,-0.350984
3.348,-0.533915,1.183408,-0.395453
3.368,-0.595131,1.146588,-0.43205
3.388,-0.628657,1.120583,-0.456352
3.408,-0.648732,1.107999,-0.466056
3.428,-0.651264,1.107199,-0.459296
3.448,-0.627711,1.109505,-0.439902
3.468,-0.581734,1.105233,-0.411172
3.488,-0.520817,1.088793,-0.378068
3.508,-0.454097,1.061589,-0.34062
3.528,-0.399365,1.028337,-0.300889
3.548,-0.365545,0.993711,-0.258459
3.568,-0.344407,0.952587,-0.214865
3.588,-0.32348,0.901258,-0.170563
3.608,-0.304482,0.845017,-0.128085
3.628,-0.29263,0.795663,-0.091044
3.648,-0.287607,0.753977,-0.061599
3.668,-0.285126,0.711362,-0.038996
3.688,-0.283761,0.669579,-0.018487
3.708,-0.284116,0.637046,0.000704
3.728,-0.284173,0.608396,0.018584
3.748,-0.279001,0.580896,0.036674
3.768,-0.265275,0.558075,0.054054
3.788,-0.247601,0.537504,0.070415
3.808,-0.231289,0.516055,0.085081
3.828,-0.218843,0.497081,0.097382
3.848,-0.210589,0.485523,0.106393
3.868,-0.209305,0.473976,0.111501
3.888,-0.215909,0.458472,0.11406
3.908,-0.229298,0.442726,0.113227
3.928,-0.248161,0.429446,0.110314
3.948,-0.268113,0.419034,0.10576
3.968,-0.281755,0.407491,0.100474
3.988,-0.276068,0.398689,0.095385
4.008,-0.246229,0.393877,0.092089
4.028,-0.199912,0.387665,0.092057
4.048,-0.148912,0.377972,0.09332
4.068,-0.086042,0.366093,0.095844
4.088,-0.008791,0.352497,0.099014
4.108,0.067104,0.335189,0.101413
4.183,0.142863,0.310474,0.099116
4.203,0.215108,0.283504,0.096363
4.223,0.289641,0.254649,0.093718
4.243,0.367809,0.224143,0.092479
4.263,0.431955,0.194654,0.090955
4.283,0.472201,0.168184,0.088763
4.303,0.502576,0.14467,0.086917
4.323,0.534196,0.124343,0.086638
4.343,0.558228,0.107247,0.086992
4.363,0.562939,0.093912,0.086172
4.383,0.547819,0.083783,0.084302
4.403,0.529479,0.077478,0.081195
4.423,0.515911,0.076319,0.075453
4.443,0.507176,0.076483,0.066898
4.463,0.50047,0.074752,0.058065
4.483,0.48968,0.070351,0.050838
4.503,0.472334,0.066057,0.045408
4.523,0.448994,0.063142,0.040619
4.543,0.422686,0.061152,0.036226
4.563,0.397867,0.05943,0.032406
4.583,0.375981,0.057929,0.029348
4.603,0.356869,0.0562,0.027019
4.623,0.340675,0.054419,0.025658
4.643,0.325651,0.052789,0.025275
4.663,0.310184,0.051295,0.025496
4.683,0.293052,0.049857,0.025852
4.703,0.275773,0.04855,0.026184
4.723,0.25979,0.047346,0.026706
4.743,0.244517,0.046307,0.027554
4.763,0.229259,0.045588,0.028726
4.783,0.214769,0.045467,0.030349
4.803,0.203245,0.045867,0.032786
4.823,0.194546,0.046677,0.036215
4.843,0.184908,0.047749,0.040163
4.863,0.173282,0.049119,0.044143
4.883,0.160988,0.050807,0.047688
4.903,0.149192,0.052104,0.050854
4.923,0.137022,0.052347,0.053515
4.943,0.122224,0.051423,0.055454
4.963,0.103766,0.049699,0.056846
4.983,0.083693,0.048318,0.057975
5.003,0.066232,0.048054,0.059019
5.023,0.051035,0.048647,0.060019
5.043,0.033101,0.049455,0.060546
5.063,0.009601,0.050864,0.05973
5.083,-0.016482,0.051963,0.057235
5.103,-0.039968,0.051588,0.053929
5.123,-0.058113,0.049467,0.049801
5.143,-0.065385,0.046249,0.044852
5.163,-0.058106,0.041984,0.03939
5.183,-0.041922,0.036014,0.03394
5.203,-0.02451,0.028618,0.028078
5.223,-0.009523,0.020931,0.021484
5.243,0.003762,0.012904,0.013954
5.263,0.016264,0.00351,0.005251
5.283,0.025918,-0.007382,-0.004668
5.303,0.029306,-0.01925,-0.016168
5.323,0.02444,-0.031665,-0.029742
5.343,0.016386,-0.045988,-0.044587
5.363,0.010145,-0.063207,-0.059998
5.383,0.005702,-0.081946,-0.075598
5.403,-0.00153,-0.102184,-0.091924
5.423,-0.010289,-0.125131,-0.109398
5.443,-0.011111,-0.150658,-0.12681
5.463,-0.009522,-0.176566,-0.144557
5.483,-0.014137,-0.202572,-0.163627
5.503,-0.022766,-0.229266,-0.183985
5.523,-0.03257,-0.257021,-0.205287
5.543,-0.045475,-0.285387,-0.227031
5.563,-0.063967,-0.313559,-0.2506
5.583,-0.07668,-0.341618,-0.274543
5.603,-0.07462,-0.370155,-0.296885
5.623,-0.064244,-0.39863,-0.317846
5.643,-0.052694,-0.426296,-0.338542
5.663,-0.04246,-0.452907,-0.358708
5.683,-0.032159,-0.478629,-0.377868
5.703,-0.02156,-0.501887,-0.39562
5.723,-0.013458,-0.521654,-0.411406
5.743,-0.011386,-0.538159,-0.425973
5.763,-0.011915,-0.551623,-0.438595
5.783,-0.011657,-0.5629,-0.448098
5.803,-0.011518,-0.572264,-0.455406
5.823,-0.015877,-0.580391,-0.462385
5.843,-0.025022,-0.58783,-0.468943
5.863,-0.033925,-0.594627,-0.472585
5.883,-0.040882,-0.600398,-0.473884
5.903,-0.049726,-0.604834,-0.474637
5.923,-0.063404,-0.609573,-0.473989
5.943,-0.079024,-0.616305,-0.469743
5.963,-0.092948,-0.624588,-0.462913
5.983,-0.102121,-0.633415,-0.453779
6.003,-0.106162,-0.64331,-0.441234
6.023,-0.104727,-0.656323,-0.42314
6.043,-0.100074,-0.671799,-0.400335
6.063,-0.095198,-0.688298,-0.373383
6.083,-0.092409,-0.704982,-0.343259
6.103,-0.09356,-0.722125,-0.309994
6.123,-0.098454,-0.739124,-0.274746
6.143,-0.10552,-0.756743,-0.237223
6.163,-0.111897,-0.774956,-0.19854
6.369,-0.111972,-0.775968,-0.179976
6.389,-0.110942,-0.77427,-0.165894
6.409,-0.107642,-0.768773,-0.156471
6.429,-0.105317,-0.759177,-0.152241
6.449,-0.108188,-0.745781,-0.153863
6.469,-0.113844,-0.728495,-0.160923
6.489,-0.116239,-0.706566,-0.1734
6.509,-0.116064,-0.679081,-0.191632
6.529,-0.116839,-0.645592,-0.21531
6.549,-0.117105,-0.606041,-0.243651
6.569,-0.116257,-0.55974,-0.276379
6.589,-0.117001,-0.50573,-0.313723
6.609,-0.120455,-0.443611,-0.356497
6.629,-0.123143,-0.373456,-0.404306
6.649,-0.123273,-0.295898,-0.45676
6.669,-0.122885,-0.211471,-0.514143
6.689,-0.125001,-0.123114,-0.576132
6.709,-0.131745,-0.034002,-0.640235
6.729,-0.141923,0.055179,-0.703945
6.749,-0.152143,0.144535,-0.766768
6.769,-0.162863,0.233858,-0.829218
6.789,-0.17692,0.321434,-0.890348
6.809,-0.192315,0.405182,-0.948699
6.829,-0.204764,0.484333,-1.004496
6.849,-0.213839,0.560457,-1.058209
6.869,-0.223606,0.631571,-1.109189
6.889,-0.235655,0.695237,-1.155422
6.909,-0.246355,0.749605,-1.196069
6.929,-0.254261,0.794953,-1.230691
6.949,-0.261089,0.831358,-1.258151
6.969,-0.270005,0.858462,-1.276821
6.989,-0.281949,0.876701,-1.28581
7.009,-0.294787,0.887721,-1.286637
7.029,-0.305702,0.894112,-1.280283
7.049,-0.312546,0.896916,-1.26661
7.069,-0.315643,0.89638,-1.246642
7.089,-0.314872,0.893236,-1.221319
7.109,-0.310009,0.887785,-1.190699
7.129,-0.302893,0.879203,-1.154269
7.149,-0.295106,0.866531,-1.109986
7.169,-0.28643,0.849295,-1.0579
7.189,-0.276232,0.827405,-0.998168
7.209,-0.265059,0.801862,-0.930248
7.229,-0.253422,0.771833,-0.852729
7.249,-0.241746,0.735862,-0.764299
7.269,-0.231498,0.694286,-0.666532
7.289,-0.223072,0.647373,-0.558057
7.309,-0.214852,0.595867,-0.437419
7.329,-0.205786,0.539916,-0.30443
7.349,-0.196419,0.478575,-0.161595
7.369,-0.186997,0.411467,-0.011378
7.389,-0.18077,0.338812,0.143323
7.409,-0.17953,0.25962,0.297122
7.429,-0.179694,0.171849,0.440824
7.449,-0.177577,0.075171,0.564412
7.469,-0.170699,-0.028511,0.664173
7.489,-0.157651,-0.1346,0.735845
7.509,-0.138725,-0.234808,0.775785
7.529,-0.115987,-0.324429,0.789063
7.549,-0.089867,-0.404413,0.780089
7.569,-0.059208,-0.476069,0.752023
7.589,-0.026024,-0.536562,0.707341
7.609,0.008847,-0.589162,0.646072
7.629,0.052596,-0.636133,0.569507
7.649,0.109679,-0.674456,0.483006
7.669,0.174283,-0.700042,0.390294
7.689,0.245973,-0.719165,0.292493
7.709,0.330125,-0.734854,0.194841
7.729,0.429537,-0.744387,0.105578
7.749,0.543181,-0.749309,0.027964
7.769,0.666669,-0.754559,-0.038921
7.789,0.785433,-0.762414,-0.091108
7.809,0.882038,-0.768453,-0.122808
7.829,0.94225,-0.77006,-0.137928
7.849,0.974426,-0.769355,-0.141927
7.869,0.993453,-0.767164,-0.133641
7.889,1.00853,-0.761425,-0.114638
7.909,1.02202,-0.755211,-0.087698
7.929,1.038058,-0.751683,-0.053176
7.949,1.047926,-0.749326,-0.011654
7.969,1.044589,-0.749905,0.036334
7.989,1.034391,-0.753913,0.083603
8.009,1.023398,-0.758323,0.132352
8.029,1.016247,-0.763353,0.186474
8.049,1.009682,-0.767512,0.24553
8.069,0.996653,-0.769873,0.308295
8.089,0.981333,-0.772963,0.37102
8.109,0.960621,-0.777567,0.424666
8.129,0.923182,-0.782364,0.464352
8.149,0.880194,-0.788514,0.485932
8.169,0.845746,-0.793432,0.491014
8.189,0.809708,-0.794644,0.483952
8.209,0.765576,-0.793748,0.469024
8.229,0.728177,-0.791155,0.449396
8.249,0.70112,-0.785693,0.429247
8.269,0.676712,-0.776865,0.412845
8.289,0.647383,-0.766464,0.399184
8.309,0.625231,-0.755592,0.383266
8.329,0.610165,-0.741771,0.364196
8.349,0.589804,-0.726489,0.343632
8.427,0.572732,-0.712378,0.321067
8.447,0.545907,-0.700463,0.303049
8.467,0.517239,-0.690555,0.284767
8.487,0.485322,-0.680469,0.26195
8.507,0.452027,-0.671136,0.234074
8.527,0.416291,-0.662615,0.201984
8.547,0.378556,-0.654752,0.165918
8.567,0.344082,-0.646125,0.127975
8.587,0.320027,-0.6368,0.089496
8.607,0.305798,-0.627289,0.05203
8.627,0.299504,-0.616751,0.015422
8.647,0.300977,-0.605212,-0.019122
8.667,0.301556,-0.593812,-0.050653
8.687,0.29286,-0.583239,-0.078664
8.707,0.28008,-0.572532,-0.10379
8.727,0.276,-0.560008,-0.125284
8.747,0.279486,-0.5467,-0.142753
8.767,0.282786,-0.534728,-0.157671
8.787,0.278402,-0.521787,-0.17197
8.807,0.267141,-0.50637,-0.18382
8.827,0.253889,-0.490495,-0.191675
8.847,0.240808,-0.475479,-0.194779
8.867,0.228069,-0.459203,-0.193729
8.887,0.219134,-0.439144,-0.188107
8.907,0.210948,-0.418101,-0.177292
8.927,0.197452,-0.397498,-0.160291
8.947,0.179846,-0.375615,-0.138028
8.967,0.164016,-0.351204,-0.109991
8.987,0.152803,-0.326052,-0.076389
9.007,0.147251,-0.302033,-0.038082
9.027,0.145802,-0.280366,0.003774
9.047,0.14227,-0.262836,0.050755
9.067,0.128934,-0.24779,0.104459
9.087,0.103179,-0.236226,0.164233
9.107,0.071697,-0.233021,0.231671
9.127,0.035057,-0.237068,0.303852
9.147,-0.006047,-0.2421,0.374941
9.167,-0.052574,-0.246536,0.442994
9.187,-0.10402,-0.254308,0.510287
9.207,-0.143469,-0.263385,0.57376
9.227,-0.155792,-0.263887,0.619166
9.247,-0.137399,-0.256222,0.644821
9.267,-0.102999,-0.247401,0.655035
9.287,-0.06337,-0.238379,0.650003
9.307,-0.022777,-0.227445,0.632242
9.327,0.014219,-0.213809,0.606442
9.347,0.042021,-0.199577,0.580326
9.367,0.063438,-0.185244,0.559411
9.387,0.079921,-0.171565,0.543243
9.407,0.09433,-0.158665,0.533467
9.427,0.116854,-0.145943,0.532798
9.447,0.150056,-0.132883,0.537839
9.467,0.185497,-0.119063,0.546695
9.487,0.214918,-0.106261,0.558329
9.507,0.236322,-0.096011,0.572201
9.527,0.253023,-0.088568,0.589089
9.547,0.265823,-0.082974,0.608453
9.567,0.268617,-0.078952,0.629204
9.587,0.260413,-0.077078,0.650388
9.607,0.248249,-0.078189,0.672906
9.627,0.235471,-0.081537,0.698217
9.647,0.220735,-0.085823,0.725474
9.667,0.203239,-0.090648,0.75243
9.687,0.188253,-0.096107,0.777994
9.707,0.174517,-0.101482,0.800057
9.727,0.156577,-0.107,0.821221
9.747,0.136478,-0.113661,0.842134
9.767,0.120522,-0.121802,0.863221
9.787,0.108497,-0.130426,0.88482
9.807,0.094131,-0.139149,0.905905
9.827,0.078964,-0.148243,0.926988
9.847,0.065789,-0.157462,0.947707
9.867,0.051846,-0.165832,0.967184
9.887,0.033874,-0.17351,0.98444
9.907,0.016673,-0.181501,1
9.927,0.004269,-0.189925,1.014688
9.947,-0.005554,-0.19738,1.027199
9.967,-0.019197,-0.20281,1.036368
9.987,-0.036198,-0.206021,1.042055
10.007,-0.051434,-0.207046,1.044244
10.027,-0.064746,-0.2059,1.041666
10.047,-0.078107,-0.202836,1.033421
10.067,-0.088747,-0.198189,1.018883
10.087,-0.09358,-0.192647,0.999337
10.107,-0.092692,-0.185963,0.97555
10.127,-0.089239,-0.177821,0.946601
10.147,-0.08623,-0.168614,0.911262
10.167,-0.084576,-0.158233,0.868327
10.187,-0.084557,-0.146117,0.816837
10.207,-0.086132,-0.131506,0.757124
10.227,-0.089707,-0.113929,0.689286
10.247,-0.094934,-0.093452,0.61355
10.267,-0.101393,-0.069917,0.530374
10.287,-0.11168,-0.042822,0.439717
10.307,-0.1259,-0.011539,0.341849
10.327,-0.141333,0.02408,0.237276
10.347,-0.15693,0.063462,0.126272
10.367,-0.173887,0.10585,0.009836
10.387,-0.194879,0.152139,-0.111516
10.407,-0.219334,0.20324,-0.23599
10.484,-0.242413,0.261443,-0.36665
10.504,-0.266173,0.321593,-0.496127
10.524,-0.291665,0.382729,-0.623294
10.544,-0.317236,0.444764,-0.745184
10.564,-0.340038,0.507732,-0.858711
10.584,-0.360332,0.571114,-0.962646
10.604,-0.382573,0.633936,-1.058095
10.624,-0.409765,0.696163,-1.142977
10.644,-0.439907,0.759309,-1.215081
10.664,-0.470306,0.824552,-1.27511
10.684,-0.50046,0.891002,-1.324424
10.704,-0.529549,0.956731,-1.363828
10.724,-0.557859,1.02062,-1.393785
10.744,-0.586798,1.083378,-1.416093
10.764,-0.612918,1.145721,-1.432145
10.784,-0.628496,1.205836,-1.440198
10.804,-0.631175,1.262333,-1.442654
10.824,-0.625551,1.315684,-1.441196
10.844,-0.622781,1.366138,-1.438841
10.864,-0.625962,1.411981,-1.433608
10.884,-0.628795,1.450995,-1.423316
10.904,-0.625159,1.484236,-1.406748
10.924,-0.61496,1.512974,-1.384068
10.944,-0.604288,1.536153,-1.35569
10.964,-0.58882,1.552791,-1.319628
10.984,-0.568618,1.562441,-1.27645
11.004,-0.543576,1.565995,-1.226556
11.024,-0.511432,1.563208,-1.171175
11.044,-0.475934,1.552483,-1.106195
11.064,-0.443695,1.532182,-1.036084
11.084,-0.419983,1.502343,-0.963691
11.104,-0.404088,1.464496,-0.891508
11.124,-0.389474,1.417998,-0.816002
11.144,-0.373817,1.363451,-0.737165
11.164,-0.36171,1.303697,-0.658443
11.184,-0.35242,1.241161,-0.580018
11.204,-0.34086,1.176003,-0.496877
11.224,-0.325845,1.109398,-0.408532
11.244,-0.309118,1.043317,-0.316902
11.264,-0.291328,0.977254,-0.223671
11.284,-0.273164,0.909975,-0.131108
11.304,-0.256092,0.841722,-0.042433
11.324,-0.241456,0.773451,0.040867
11.344,-0.232151,0.705519,0.118393
11.364,-0.22983,0.639415,0.187575
11.384,-0.231229,0.576865,0.248187
11.404,-0.232965,0.517432,0.305629
11.424,-0.235798,0.462307,0.359843
11.444,-0.240625,0.413502,0.408591
11.464,-0.245234,0.370322,0.452463
11.484,-0.247023,0.329477,0.494214
11.504,-0.245821,0.28927,0.533642
11.524,-0.243868,0.25066,0.568222
11.544,-0.242469,0.214876,0.597414
11.564,-0.241703,0.18098,0.62224
11.584,-0.242067,0.147285,0.643687
11.604,-0.24373,0.114558,0.661882
11.624,-0.246539,0.084666,0.677158
11.644,-0.254782,0.053373,0.695428
11.664,-0.267671,0.020492,0.703979
11.684,-0.278924,-0.004125,0.717749
11.704,-0.286877,-0.025617,0.727963
11.724,-0.291024,-0.046163,0.739449
11.744,-0.291011,-0.069985,0.749609
11.764,-0.289854,-0.087567,0.755541
11.784,-0.287324,-0.099857,0.760065
11.804,-0.283858,-0.108054,0.760462
11.824,-0.280418,-0.113757,0.758534
11.844,-0.276105,-0.119212,0.755735
11.864,-0.272874,-0.124245,0.751613
11.884,-0.271203,-0.127304,0.745508
11.904,-0.269775,-0.129026,0.736577
11.924,-0.266055,-0.130042,0.725909
11.944,-0.259106,-0.130451,0.713319
11.964,-0.250647,-0.130949,0.699812
11.984,-0.242341,-0.131057,0.686137
12.004,-0.234898,-0.130771,0.672219
12.024,-0.22856,-0.130443,0.657998
12.044,-0.223812,-0.128806,0.64288
12.064,-0.221662,-0.125218,0.626786
12.084,-0.222456,-0.119749,0.607729
12.104,-0.224679,-0.112732,0.588391
12.124,-0.227729,-0.107847,0.56717
12.144,-0.228937,-0.103602,0.545187
12.164,-0.227591,-0.097907,0.522226
12.184,-0.223167,-0.090417,0.49705
12.204,-0.218064,-0.083029,0.470689
12.224,-0.213468,-0.074154,0.444679
12.244,-0.209075,-0.063492,0.417399
12.264,-0.205279,-0.051959,0.388866
12.284,-0.202526,-0.040926,0.360594
12.304,-0.199379,-0.02954,0.333253
12.324,-0.195625,-0.017571,0.305121
12.344,-0.191771,-0.00631,0.276193
12.364,-0.18818,0.003793,0.246225
12.384,-0.184868,0.013,0.215473
12.404,-0.18205,0.021564,0.184982
12.424,-0.179624,0.030344,0.154334
12.444,-0.177645,0.039696,0.123629
12.464,-0.176256,0.049616,0.093505
