accel_time_list,accel_x_list,accel_y_list,accel_z_list
0.375,-4.455609,-7.484274,1.326388
0.395,-4.447229,-7.273584,1.091756
0.415,-4.446032,-7.177542,0.869184
0.435,-4.432264,-7.208871,0.661102
0.455,-4.440768,-7.31422,0.484489
0.475,-4.464808,-7.406763,0.342519
0.495,-4.528945,-7.507955,0.212651
0.515,-4.640119,-7.665616,0.084652
0.535,-4.779733,-7.829842,-0.024731
0.556,-4.92967,-7.913026,-0.094147
0.576,-5.069054,-7.913008,-0.130171
0.596,-5.194267,-7.829474,-0.132175
0.616,-5.305723,-7.67813,-0.102645
0.636,-5.41172,-7.482947,-0.051957
0.656,-5.532167,-7.274887,0.004175
0.676,-5.682969,-7.079751,0.058094
0.696,-5.865856,-6.909105,0.101146
0.716,-6.0863,-6.769304,0.127028
0.736,-6.339719,-6.659827,0.133567
0.756,-6.60395,-6.562222,0.122953
0.776,-6.855427,-6.459913,0.098079
0.796,-7.078706,-6.358535,0.059107
0.816,-7.269012,-6.298234,-0.000522
0.836,-7.433649,-6.319383,-0.072441
0.856,-7.556974,-6.355572,-0.133216
0.876,-7.622697,-6.340956,-0.178129
0.896,-7.692718,-6.272578,-0.22544
0.916,-7.816831,-6.192084,-0.252878
0.936,-7.866737,-6.111689,-0.272176
0.956,-7.803033,-6.030812,-0.297562
0.976,-7.727553,-5.95595,-0.313797
0.996,-7.694662,-5.893272,-0.318427
1.016,-7.67787,-5.850535,-0.320547
1.036,-7.663285,-5.828205,-0.325131
1.056,-7.660075,-5.812761,-0.328816
1.076,-7.667356,-5.795881,-0.328123
1.096,-7.680913,-5.77297,-0.317469
1.116,-7.697996,-5.7351,-0.293728
1.136,-7.713395,-5.686915,-0.272667
1.156,-7.744568,-5.588367,-0.20441
1.176,-7.793324,-5.639171,-0.109032
1.196,-7.852744,-5.696959,0.135309
1.216,-7.888011,-5.649252,0.476672
1.236,-7.886243,-5.630715,0.730287
1.256,-7.848296,-5.671821,0.819419
1.276,-7.801633,-5.722399,0.825347
1.296,-7.765681,-5.772241,0.811589
1.316,-7.738561,-5.82697,0.803065
1.336,-7.72543,-5.865263,0.798582
1.356,-7.725914,-5.873719,0.78414
1.376,-7.732056,-5.85969,0.762819
1.396,-7.743627,-5.834275,0.749679
1.416,-7.764338,-5.801422,0.754732
1.436,-7.791326,-5.762449,0.781067
1.456,-7.818756,-5.708829,0.822473
1.476,-7.847916,-5.642344,0.871922
1.496,-7.875897,-5.565932,0.922139
1.516,-7.894977,-5.486498,0.962899
1.536,-7.908491,-5.412457,0.988118
1.556,-7.932088,-5.356887,1.006843
1.576,-7.958421,-5.321433,1.024026
1.596,-7.974081,-5.296938,1.03976
1.616,-7.976459,-5.270764,1.052559
1.636,-7.968669,-5.235177,1.059633
1.656,-7.953259,-5.190251,1.063601
1.676,-7.930418,-5.140749,1.064552
1.696,-7.905117,-5.090864,1.063962
1.716,-7.881001,-5.043488,1.060636
1.736,-7.860754,-4.999236,1.056072
1.756,-7.845434,-4.959465,1.050553
1.776,-7.834575,-4.929085,1.043827
1.796,-7.824946,-4.912766,1.035707
1.816,-7.813256,-4.906889,1.027594
1.836,-7.798245,-4.901601,1.021571
1.856,-7.783461,-4.892148,1.018583
1.876,-7.770974,-4.881637,1.017908
1.896,-7.761954,-4.869494,1.020013
1.916,-7.758339,-4.856364,1.024161
1.936,-7.759664,-4.841883,1.031227
1.956,-7.76333,-4.826205,1.040028
1.976,-7.768093,-4.810956,1.049073
1.996,-7.774111,-4.799285,1.057076
2.016,-7.780272,-4.795223,1.062814
2.036,-7.787898,-4.797731,1.066964
2.056,-7.797017,-4.805291,1.070328
2.076,-7.807972,-4.816197,1.074028
2.096,-7.816384,-4.8259,1.080192
2.116,-7.820212,-4.829071,1.088448
2.136,-7.818641,-4.826055,1.097332
2.156,-7.81262,-4.819531,1.107781
2.176,-7.807614,-4.812028,1.120361
2.196,-7.805636,-4.803123,1.134455
2.216,-7.803571,-4.793406,1.14925
2.236,-7.796295,-4.783271,1.164137
2.256,-7.78324,-4.773377,1.179823
2.276,-7.764523,-4.763674,1.199904
2.296,-7.734897,-4.752614,1.221703
2.316,-7.687892,-4.739058,1.24621
2.336,-7.626072,-4.725789,1.274245
2.356,-7.557204,-4.715073,1.304403
2.695,-7.303953,-4.544286,1.223072
2.715,-7.210598,-4.695322,1.119998
2.735,-8.199643,-6.168396,2.460514
2.755,-8.234252,-10.99766,0.607217
2.775,-7.867188,-5.419809,-1.798319
2.795,-6.595553,6.399199,-3.221478
2.815,-4.266626,7.122713,-0.135855
2.835,-1.734346,-4.397458,4.974429
2.855,-0.297497,-8.715155,5.567402
2.875,-2.20473,-4.584869,4.653032
2.895,-4.104654,-2.915533,3.354208
2.915,-2.767104,-4.654885,1.926747
2.935,-1.406162,-6.040226,1.156542
2.955,-1.791291,-7.335426,2.179057
2.975,-2.584481,-8.822577,5.591736
2.995,-2.893959,-9.257747,7.914669
3.015,-1.348005,-8.618975,8.258492
3.035,-0.075388,-8.04714,7.214781
3.055,-0.949022,-7.765655,5.818891
3.075,-2.237959,-7.274152,4.606431
3.095,-2.133612,-7.141236,3.039952
3.115,-0.957371,-7.537665,1.439005
3.135,0.752319,-7.960743,0.670032
3.155,1.799696,-8.151017,0.717691
3.175,2.100701,-7.976004,0.699693
3.195,1.973119,-7.747252,0.431319
3.215,1.819908,-7.755104,0.01224
3.235,1.881871,-7.90236,-0.476448
3.255,1.983941,-7.960851,-1.029846
3.275,1.968233,-7.88264,-1.59505
3.295,1.883114,-7.820774,-2.099776
3.315,1.888901,-7.867792,-2.580835
3.335,1.945124,-7.945148,-3.034525
3.355,1.961554,-7.939214,-3.401078
3.375,1.969789,-7.925661,-3.664603
3.395,1.97009,-7.92369,-3.820265
3.415,1.971742,-7.919837,-3.908887
3.435,1.948377,-7.919741,-3.99117
3.455,1.91559,-7.935775,-4.090354
3.475,1.880537,-7.96056,-4.190344
3.495,1.848952,-7.984226,-4.268882
3.515,1.829532,-7.994486,-4.325144
3.535,1.813391,-7.997256,-4.330532
3.555,1.785856,-8.013924,-4.286666
3.575,1.76465,-8.03963,-4.239078
3.595,1.75184,-8.053119,-4.208637
3.615,1.73423,-8.064637,-4.182205
3.635,1.720181,-8.076824,-4.152897
3.655,1.706622,-8.085032,-4.119795
3.675,1.699404,-8.079146,-4.101789
3.695,1.676686,-8.1399,-4.09912
3.715,1.665568,-8.144992,-4.095288
3.735,1.698058,-8.149941,-4.119908
3.755,1.697117,-8.15854,-4.146009
3.775,1.683933,-8.166517,-4.151756
3.795,1.669679,-8.174104,-4.154157
3.815,1.656269,-8.179809,-4.162388
3.835,1.649449,-8.181679,-4.166649
3.855,1.647187,-8.18926,-4.169923
3.875,1.653694,-8.195596,-4.17393
3.895,1.669911,-8.197648,-4.17785
3.915,1.686319,-8.194712,-4.180881
3.935,1.703027,-8.196644,-4.182962
3.955,1.710522,-8.198024,-4.181294
3.975,1.714401,-8.200674,-4.180583
3.995,1.713196,-8.203968,-4.185733
4.015,1.709589,-8.208704,-4.194907
4.035,1.70765,-8.213163,-4.202393
4.055,1.709841,-8.217266,-4.203801
4.075,1.715859,-8.22322,-4.197474
4.095,1.722929,-8.230614,-4.184445
4.115,1.72542,-8.242723,-4.168067
4.135,1.727911,-8.254905,-4.150812
4.155,1.732409,-8.263459,-4.13167
4.175,1.737894,-8.272786,-4.111329
4.195,1.742148,-8.280926,-4.088756
4.215,1.74412,-8.289323,-4.065476
4.235,1.743312,-8.298094,-4.044294
4.255,1.741418,-8.307226,-4.027315
4.275,1.738743,-8.317239,-4.015027
4.295,1.735493,-8.327296,-4.006041
4.315,1.732512,-8.336559,-3.999168
4.335,1.730149,-8.344778,-3.993843
4.355,1.7281,-8.351442,-3.988249
4.375,1.725842,-8.357533,-3.982444
4.395,1.722998,-8.362765,-3.977324
4.415,1.720353,-8.368153,-3.972377
4.435,1.717263,-8.373577,-3.967895
4.455,1.714484,-8.379148,-3.963858
4.475,1.711857,-8.384788,-3.959743
4.495,1.709448,-8.390315,-3.954856
4.515,1.707178,-8.395451,-3.950323
4.535,1.705076,-8.400172,-3.946928
4.555,1.703169,-8.404321,-3.943323
4.575,1.701553,-8.407847,-3.940332
4.595,1.700082,-8.410638,-3.938235
4.615,1.69885,-8.413188,-3.937031
4.635,1.69765,-8.415738,-3.935976
4.655,1.69645,-8.41806,-3.935428
4.675,1.695504,-8.420614,-3.935257
4.835,1.693287,-8.423105,-3.935127
4.855,1.690812,-8.425693,-3.935456
4.875,1.688489,-8.428248,-3.93657
4.895,1.686283,-8.430867,-3.937074
4.915,1.684581,-8.433363,-3.937026
4.935,1.683248,-8.435679,-3.936251
4.955,1.682006,-8.437404,-3.935267
4.975,1.680676,-8.439236,-3.934729
4.995,1.67903,-8.441494,-3.934778
5.015,1.677164,-8.443645,-3.934732
5.035,1.675508,-8.44546,-3.934998
5.055,1.673862,-8.447235,-3.934705
5.075,1.672334,-8.449028,-3.934571
5.095,1.671168,-8.450921,-3.93444
5.115,1.670082,-8.452801,-3.934431
5.135,1.669127,-8.45475,-3.934246
5.155,1.668431,-8.456388,-3.933403
5.175,1.667908,-8.457591,-3.932551
5.195,1.667266,-8.458663,-3.932113
5.215,1.666586,-8.460079,-3.931658
5.235,1.66592,-8.461493,-3.930744
5.255,1.665016,-8.46298,-3.930286
5.275,1.664204,-8.464234,-3.930405
5.295,1.663111,-8.465287,-3.930228
5.315,1.661941,-8.466418,-3.929633
5.335,1.660501,-8.46827,-3.929781
5.355,1.659089,-8.469843,-3.930831
5.375,1.657749,-8.47119,-3.931296
5.395,1.656518,-8.472343,-3.931853
5.415,1.655611,-8.473332,-3.932324
5.435,1.654737,-8.474312,-3.932834
5.455,1.653824,-8.475138,-3.93331
5.475,1.652752,-8.475979,-3.933752
5.495,1.651763,-8.477076,-3.934064
5.515,1.650712,-8.478209,-3.93418
5.535,1.649528,-8.479403,-3.934534
5.555,1.648427,-8.480656,-3.934765
5.575,1.647697,-8.481705,-3.934969
5.595,1.646998,-8.482337,-3.93498
5.615,1.646042,-8.483202,-3.934728
5.635,1.645096,-8.484035,-3.934598
5.655,1.644088,-8.484906,-3.934732
5.675,1.642802,-8.486176,-3.935153
5.695,1.641434,-8.487075,-3.935688
5.715,1.640342,-8.488204,-3.93574
5.735,1.639238,-8.489226,-3.936151
5.755,1.63812,-8.490167,-3.936485
5.775,1.637325,-8.491097,-3.93672
5.795,1.63649,-8.491779,-3.936929
5.815,1.635712,-8.492358,-3.93692
5.835,1.634606,-8.493123,-3.93696
5.855,1.633487,-8.493976,-3.937501
5.875,1.632236,-8.494916,-3.937894
5.895,1.631284,-8.495584,-3.938426
5.915,1.630079,-8.496412,-3.939025
5.935,1.628742,-8.49764,-3.940049
5.955,1.627753,-8.498711,-3.94068
5.975,1.626798,-8.499508,-3.940777
5.995,1.625877,-8.500154,-3.940946
6.015,1.625277,-8.500482,-3.94116
6.035,1.624586,-8.501142,-3.94166
6.055,1.623927,-8.501771,-3.942131
6.075,1.622962,-8.502418,-3.942669
6.095,1.622056,-8.503178,-3.943249
6.115,1.621182,-8.503859,-3.943871
6.135,1.620077,-8.50458,-3.944536
6.155,1.61884,-8.505415,-3.94493
6.175,1.617807,-8.506385,-3.945488
6.195,1.616809,-8.507297,-3.946136
6.215,1.616107,-8.507984,-3.946753
6.235,1.615101,-8.508689,-3.947365
6.255,1.613962,-8.509817,-3.948185
6.275,1.613097,-8.510742,-3.949189
6.295,1.612792,-8.511251,-3.949705
6.315,1.613136,-8.511373,-3.949329
6.335,1.613453,-8.511684,-3.947832
6.355,1.613743,-8.512471,-3.94611
6.375,1.614197,-8.513753,-3.945578
6.395,1.613785,-8.515645,-3.945196
6.415,1.613856,-8.516536,-3.944937
6.435,1.614237,-8.517489,-3.944824
6.455,1.61416,-8.518218,-3.944402
6.475,1.614347,-8.518533,-3.944486
6.495,1.613885,-8.519419,-3.945216
6.515,1.613261,-8.520631,-3.946058
6.535,1.612284,-8.522239,-3.948017
6.555,1.610957,-8.523686,-3.949669
6.575,1.611798,-8.523874,-3.948552
6.595,1.613565,-8.523702,-3.947086
6.615,1.615099,-8.524872,-3.944366
6.635,1.618149,-8.525072,-3.940285
6.655,1.621409,-8.523858,-3.936149
6.675,1.622696,-8.524882,-3.933754
6.695,1.624282,-8.526471,-3.931072
6.715,1.625852,-8.527349,-3.928679
6.735,1.627143,-8.528722,-3.927437
6.755,1.627511,-8.531469,-3.9269
6.775,1.627612,-8.535578,-3.927614
6.795,1.629077,-8.537395,-3.92801
6.815,1.629833,-8.537996,-3.926271
6.989,1.625243,-8.541992,-3.920527
7.009,1.622134,-8.54578,-3.915775
7.029,1.618195,-8.550991,-3.914517
7.049,1.611016,-8.557395,-3.910902
7.069,1.601561,-8.566487,-3.908855
7.089,1.593423,-8.573622,-3.908122
7.109,1.586826,-8.578339,-3.906582
7.129,1.582163,-8.580494,-3.903309
7.149,1.576397,-8.580832,-3.896191
7.169,1.572532,-8.584232,-3.88888
7.189,1.568873,-8.58913,-3.880589
7.209,1.565467,-8.596182,-3.871232
7.229,1.560538,-8.602612,-3.858209
7.249,1.55348,-8.606656,-3.842612
7.269,1.548001,-8.608002,-3.824105
7.289,1.54296,-8.610555,-3.804467
7.309,1.536868,-8.616913,-3.78809
7.329,1.531052,-8.620886,-3.774055
7.349,1.525198,-8.626638,-3.765332
7.369,1.51914,-8.632621,-3.761557
7.389,1.512448,-8.637753,-3.760046
7.409,1.505847,-8.642548,-3.759891
7.429,1.501036,-8.646049,-3.759234
7.449,1.498308,-8.647527,-3.760787
7.469,1.493835,-8.646932,-3.755501
7.489,1.486606,-8.660516,-3.747874
7.509,1.480144,-8.661969,-3.734337
7.529,1.478367,-8.666976,-3.723258
7.549,1.473759,-8.672387,-3.714061
7.569,1.471686,-8.672118,-3.706609
7.589,1.465493,-8.676497,-3.700979
7.609,1.461516,-8.67985,-3.695452
7.629,1.455783,-8.686353,-3.688928
7.649,1.44927,-8.692719,-3.68041
7.669,1.443875,-8.698376,-3.671283
7.689,1.438774,-8.702204,-3.660116
7.709,1.433245,-8.706329,-3.647936
7.729,1.427101,-8.712976,-3.636859
7.749,1.424777,-8.713617,-3.626396
7.769,1.420225,-8.716982,-3.613691
7.789,1.414714,-8.720529,-3.597928
7.809,1.410144,-8.725117,-3.582371
7.829,1.404613,-8.730497,-3.568455
7.849,1.399857,-8.734196,-3.55779
7.869,1.39759,-8.736852,-3.551948
7.889,1.395274,-8.739817,-3.549085
7.909,1.391712,-8.742632,-3.546323
7.929,1.389071,-8.74901,-3.546318
7.949,1.386721,-8.753793,-3.548324
7.969,1.384537,-8.757426,-3.548347
7.989,1.381298,-8.758629,-3.545161
8.009,1.378618,-8.760418,-3.538488
8.029,1.379173,-8.766882,-3.530493
8.049,1.379435,-8.772755,-3.521739
8.069,1.377756,-8.776462,-3.512331
8.089,1.373651,-8.785566,-3.504215
8.109,1.368725,-8.780311,-3.490146
8.129,1.370265,-8.785594,-3.480192
8.149,1.370257,-8.793602,-3.471966
8.169,1.368908,-8.792719,-3.461403
8.189,1.371332,-8.79953,-3.459231
8.209,1.376126,-8.804094,-3.456577
8.229,1.380824,-8.80574,-3.453136
8.249,1.383751,-8.805909,-3.446186
8.269,1.385907,-8.808064,-3.437893
8.289,1.388544,-8.812974,-3.427528
8.309,1.391203,-8.816518,-3.416213
8.329,1.392374,-8.818734,-3.405825
8.349,1.394084,-8.820785,-3.396834
8.369,1.396137,-8.823461,-3.390854
8.389,1.398911,-8.826086,-3.385628
8.409,1.400891,-8.829499,-3.381125
8.429,1.402373,-8.833884,-3.377313
8.449,1.404055,-8.837387,-3.374425
8.469,1.405002,-8.841573,-3.370537
8.489,1.405653,-8.84531,-3.365609
8.509,1.407134,-8.84798,-3.361187
8.529,1.409894,-8.851247,-3.353983
8.549,1.413153,-8.855079,-3.34563
8.569,1.415877,-8.857364,-3.336547
8.589,1.418621,-8.859243,-3.327075
8.609,1.420883,-8.861343,-3.317172
8.629,1.422524,-8.864021,-3.306027
8.649,1.42434,-8.867678,-3.295256
8.669,1.42688,-8.871441,-3.284618
8.689,1.430089,-8.875622,-3.274899
8.709,1.43305,-8.879952,-3.26535
8.729,1.435192,-8.883808,-3.255394
8.749,1.437839,-8.887626,-3.246878
8.769,1.440316,-8.890759,-3.238279
8.789,1.44327,-8.893668,-3.230198
8.809,1.446244,-8.896836,-3.222652
8.829,1.448445,-8.899734,-3.214822
8.849,1.450385,-8.902889,-3.206352
8.869,1.453598,-8.90654,-3.198853
8.889,1.456324,-8.910107,-3.191406
8.909,1.459215,-8.913757,-3.185229
8.929,1.463489,-8.917323,-3.180024
8.949,1.46772,-8.919991,-3.17389
8.969,1.47064,-8.923088,-3.166045
