gyro_time_list,gyro_x_list,gyro_y_list,gyro_z_list
0.410000,0.986577,1.124605,-1.137528
0.430000,0.889252,0.986377,-1.031077
0.450000,0.788333,0.891632,-0.929964
0.470000,0.736028,0.853983,-0.816843
0.490000,0.732507,0.849108,-0.682463
0.510000,0.772026,0.867238,-0.524843
0.530000,0.815628,0.895989,-0.376403
0.550000,0.802424,0.924307,-0.260185
0.570000,0.716444,0.959303,-0.160415
0.590000,0.578878,0.991555,-0.064396
0.610000,0.406661,1.004014,0.017184
0.630000,0.236196,0.986162,0.089163
0.650000,0.093371,0.934962,0.186400
0.670000,-0.029141,0.879468,0.317250
0.690000,-0.145903,0.844139,0.414999
0.710000,-0.256661,0.803611,0.490794
0.730000,-0.335004,0.743960,0.552961
0.750000,-0.367273,0.673697,0.601772
0.770000,-0.372540,0.600852,0.631788
0.790000,-0.375657,0.525342,0.641233
0.810000,-0.388378,0.446059,0.633647
0.830000,-0.406288,0.365491,0.611344
0.850000,-0.415022,0.292926,0.575507
0.870000,-0.404447,0.234925,0.523073
0.890000,-0.379011,0.192112,0.454872
0.910000,-0.349603,0.160987,0.371379
0.930000,-0.327591,0.140561,0.266622
0.950000,-0.315982,0.130818,0.138089
0.970000,-0.311003,0.130506,-0.016500
0.990000,-0.310691,0.138436,-0.203544
1.010000,-0.308973,0.156297,-0.402628
1.030000,-0.292454,0.183048,-0.570966
1.050000,-0.244576,0.211489,-0.695615
1.070000,-0.179164,0.231539,-0.784358
1.090000,-0.118594,0.241319,-0.843019
1.110000,-0.066791,0.247912,-0.879866
1.130000,-0.017516,0.254730,-0.894687
1.150000,0.031346,0.263044,-0.884600
1.170000,0.079303,0.274090,-0.853252
1.190000,0.127419,0.288089,-0.805430
1.210000,0.171270,0.301857,-0.748226
1.230000,0.197602,0.313346,-0.689516
1.250000,0.194768,0.324281,-0.629998
1.270000,0.165634,0.334040,-0.564958
1.290000,0.121855,0.338730,-0.495306
1.310000,0.075357,0.334931,-0.421335
1.330000,0.033805,0.319985,-0.338286
1.350000,-0.006505,0.297064,-0.236996
1.370000,-0.058206,0.271708,-0.108388
1.390000,-0.128209,0.247170,0.023258
1.410000,-0.211438,0.220317,0.131593
1.430000,-0.274970,0.191393,0.221435
1.450000,-0.293365,0.163829,0.290082
1.470000,-0.277261,0.139669,0.345015
1.490000,-0.250228,0.118817,0.385168
1.510000,-0.229165,0.101709,0.407168
1.530000,-0.216922,0.088310,0.408514
1.550000,-0.202033,0.077960,0.391738
1.570000,-0.171582,0.070360,0.359884
1.590000,-0.128652,0.065368,0.314813
1.610000,-0.092348,0.062862,0.253082
1.630000,-0.079316,0.063459,0.169940
1.650000,-0.091337,0.067342,0.059674
1.670000,-0.106612,0.074627,-0.081760
1.690000,-0.110070,0.084514,-0.228250
1.710000,-0.081675,0.097038,-0.348762
1.730000,-0.024270,0.109623,-0.444173
1.754000,0.033641,0.118465,-0.505849
1.774000,0.071879,0.123850,-0.550981
1.794000,0.093904,0.128890,-0.581542
1.814000,0.110349,0.134900,-0.592059
1.834000,0.126753,0.143193,-0.576280
1.854000,0.144754,0.153978,-0.539032
1.874000,0.162723,0.165640,-0.489117
1.894000,0.175231,0.177222,-0.431909
1.914000,0.175785,0.188972,-0.370429
1.934000,0.162111,0.199644,-0.306802
1.954000,0.138067,0.207256,-0.242946
1.974000,0.111347,0.210916,-0.177881
1.994000,0.082932,0.210709,-0.110867
2.014000,0.044212,0.208977,-0.040347
2.034000,-0.009649,0.206766,0.043845
2.054000,-0.067754,0.203289,0.153922
2.074000,-0.117051,0.197157,0.261801
2.094000,-0.144333,0.188275,0.347192
2.114000,-0.154389,0.177071,0.399253
2.134000,-0.154181,0.164132,0.430328
2.154000,-0.153378,0.150165,0.446643
2.174000,-0.158153,0.135413,0.450214
2.194000,-0.170456,0.120225,0.437499
2.214000,-0.185248,0.104389,0.407092
2.234000,-0.194698,0.087519,0.359552
2.254000,-0.197082,0.069735,0.297992
2.274000,-0.197950,0.051754,0.222148
2.294000,-0.201606,0.034250,0.131623
2.314000,-0.212595,0.018659,0.019844
2.334000,-0.227849,0.007044,-0.109385
2.354000,-0.236027,-0.001144,-0.239633
2.374000,-0.224805,-0.007775,-0.351466
2.394000,-0.193530,-0.014136,-0.430904
2.425000,-0.161197,-0.023083,-0.473169
2.445000,-0.140956,-0.032863,-0.500153
2.465000,-0.128207,-0.042368,-0.509110
2.485000,-0.116554,-0.050719,-0.498803
2.505000,-0.105076,-0.057315,-0.472535
2.525000,-0.094218,-0.062951,-0.434990
2.545000,-0.086246,-0.068806,-0.393847
2.565000,-0.082584,-0.075908,-0.350491
2.585000,-0.082538,-0.085101,-0.301637
2.605000,-0.087510,-0.096868,-0.253236
2.625000,-0.098866,-0.111960,-0.206984
2.645000,-0.116394,-0.131389,-0.158792
2.665000,-0.139686,-0.155908,-0.103293
2.685000,-0.167838,-0.185501,-0.020879
2.705000,-0.204748,-0.219365,0.099538
2.725000,-0.250245,-0.256337,0.227473
2.745000,-0.289928,-0.297155,0.359581
2.765000,-0.331098,-0.338628,0.469971
2.785000,-0.376767,-0.379871,0.567185
2.805000,-0.414542,-0.423602,0.664019
2.825000,-0.439090,-0.468171,0.774907
2.845000,-0.460854,-0.511975,0.886958
2.865000,-0.484684,-0.556032,0.983133
2.885000,-0.516595,-0.599551,1.057068
2.905000,-0.558568,-0.640843,1.108049
2.925000,-0.608152,-0.680319,1.136939
2.945000,-0.661347,-0.718989,1.144224
2.965000,-0.711472,-0.757642,1.131245
2.985000,-0.750312,-0.796567,1.101285
3.005000,-0.773454,-0.835765,1.057075
3.025000,-0.784618,-0.875236,1.002223
3.045000,-0.791444,-0.915843,0.937544
3.065000,-0.798945,-0.956178,0.866012
3.085000,-0.805240,-0.993885,0.791538
3.105000,-0.802905,-1.029947,0.718160
3.125000,-0.791305,-1.066135,0.646674
3.145000,-0.781701,-1.101447,0.581103
3.165000,-0.780181,-1.131437,0.524011
3.185000,-0.782939,-1.153625,0.483420
3.205000,-0.785867,-1.170716,0.462535
3.225000,-0.786040,-1.184602,0.459209
3.245000,-0.781025,-1.195626,0.468700
3.265000,-0.771483,-1.204534,0.487154
3.285000,-0.760471,-1.212446,0.514667
3.305000,-0.753686,-1.220491,0.549484
3.325000,-0.758479,-1.228727,0.587471
3.345000,-0.776336,-1.237868,0.627554
3.365000,-0.802775,-1.250554,0.667070
3.385000,-0.830684,-1.269761,0.703296
3.405000,-0.854452,-1.294293,0.741439
3.425000,-0.876244,-1.320134,0.789478
3.445000,-0.902309,-1.344638,0.852895
3.465000,-0.932190,-1.366640,0.919002
3.485000,-0.963374,-1.385294,0.971805
3.505000,-0.993079,-1.400697,1.010255
3.525000,-1.012858,-1.411785,1.039013
3.545000,-1.015689,-1.417291,1.064188
3.565000,-1.005225,-1.418253,1.083690
3.585000,-0.991305,-1.416294,1.096277
3.605000,-0.982638,-1.411747,1.098177
3.625000,-0.980848,-1.405414,1.087373
3.645000,-0.982094,-1.398629,1.063223
3.665000,-0.981631,-1.392971,1.025845
3.685000,-0.977446,-1.388685,0.974837
3.705000,-0.970223,-1.384878,0.911503
3.725000,-0.965618,-1.379971,0.833009
3.745000,-0.967399,-1.372563,0.736517
3.765000,-0.969904,-1.361279,0.624837
3.785000,-0.962336,-1.345442,0.506749
3.805000,-0.938886,-1.324602,0.391908
3.825000,-0.900024,-1.300560,0.287122
3.845000,-0.853647,-1.276135,0.200339
3.865000,-0.807165,-1.252222,0.135260
3.885000,-0.764384,-1.228413,0.093384
3.905000,-0.727692,-1.203476,0.071729
3.925000,-0.698348,-1.176717,0.064876
3.945000,-0.675307,-1.148194,0.069081
3.965000,-0.657101,-1.118703,0.084037
3.985000,-0.644365,-1.089227,0.108998
4.005000,-0.640023,-1.060877,0.142684
4.025000,-0.644740,-1.035772,0.184610
4.045000,-0.655799,-1.016093,0.232326
4.065000,-0.670176,-1.002013,0.280280
4.085000,-0.687155,-0.993258,0.325564
4.105000,-0.705195,-0.990880,0.371948
4.125000,-0.723674,-0.992650,0.426934
4.145000,-0.741147,-0.995947,0.486983
4.165000,-0.756347,-0.997651,0.539948
4.185000,-0.768594,-0.997665,0.584034
4.205000,-0.773639,-0.996095,0.619471
4.225000,-0.770311,-0.991922,0.648157
4.245000,-0.761181,-0.984575,0.670752
4.265000,-0.750440,-0.975041,0.686036
4.285000,-0.740991,-0.964492,0.690034
4.305000,-0.733284,-0.953775,0.680815
4.325000,-0.724772,-0.943291,0.659154
4.345000,-0.711980,-0.933140,0.624303
4.365000,-0.696014,-0.923684,0.576449
4.385000,-0.678918,-0.915025,0.513586
4.405000,-0.662630,-0.906326,0.435312
4.446000,-0.650545,-0.893787,0.332335
4.466000,-0.633669,-0.879457,0.228850
4.486000,-0.606266,-0.863539,0.139713
4.506000,-0.570861,-0.845363,0.074514
4.526000,-0.538428,-0.826034,0.035772
4.546000,-0.515252,-0.806653,0.023075
4.566000,-0.497513,-0.787097,0.034258
4.586000,-0.480007,-0.766589,0.066172
4.606000,-0.461361,-0.742177,0.110540
4.626000,-0.444768,-0.713659,0.159144
4.646000,-0.435479,-0.682939,0.202139
4.666000,-0.430953,-0.652286,0.242590
4.686000,-0.427813,-0.623731,0.281991
4.706000,-0.427256,-0.598156,0.314346
4.726000,-0.429902,-0.576418,0.339495
4.746000,-0.433942,-0.559313,0.357486
4.766000,-0.436461,-0.548338,0.372268
4.786000,-0.437304,-0.543420,0.386084
4.806000,-0.440773,-0.540873,0.404231
4.826000,-0.449217,-0.538781,0.432304
4.846000,-0.459893,-0.537245,0.465897
4.866000,-0.473745,-0.538342,0.488699
4.886000,-0.484928,-0.541618,0.503173
4.906000,-0.489941,-0.544062,0.501451
4.926000,-0.486638,-0.544085,0.491637
4.946000,-0.479169,-0.542499,0.475509
4.966000,-0.473199,-0.540355,0.451465
4.986000,-0.467613,-0.537828,0.418929
5.006000,-0.457171,-0.535431,0.376921
5.026000,-0.440268,-0.533132,0.326804
5.046000,-0.421122,-0.530666,0.268213
5.066000,-0.404331,-0.527536,0.200414
5.086000,-0.392469,-0.523101,0.122456
5.106000,-0.385484,-0.516230,0.034619
5.126000,-0.379608,-0.505276,-0.058733
5.146000,-0.369276,-0.488782,-0.146090
5.166000,-0.352161,-0.465936,-0.208560
5.186000,-0.331889,-0.436653,-0.238171
5.206000,-0.313060,-0.403032,-0.237727
5.226000,-0.296921,-0.365964,-0.215087
5.246000,-0.277477,-0.326123,-0.172770
5.266000,-0.255291,-0.283716,-0.125799
5.286000,-0.235091,-0.237961,-0.079173
5.306000,-0.217375,-0.188613,-0.036300
5.326000,-0.199307,-0.137067,-0.001280
5.346000,-0.178052,-0.084817,0.028504
5.366000,-0.153228,-0.032986,0.054620
5.386000,-0.125788,0.016542,0.076820
5.406000,-0.097558,0.061339,0.093532
5.426000,-0.071623,0.099792,0.103766
5.446000,-0.050807,0.131197,0.108097
5.466000,-0.041712,0.158984,0.108152
5.486000,-0.053265,0.189839,0.107472
5.506000,-0.075874,0.215349,0.103709
5.526000,-0.075760,0.232602,0.096666
5.546000,-0.044501,0.242840,0.080493
5.566000,-0.005284,0.250871,0.051791
5.586000,0.023575,0.261970,0.007907
5.606000,0.040812,0.278459,-0.047285
5.626000,0.053924,0.300299,-0.107163
5.646000,0.072942,0.326130,-0.168896
5.666000,0.106447,0.356270,-0.230628
5.686000,0.154252,0.390453,-0.292078
5.706000,0.208799,0.426881,-0.354074
5.726000,0.261950,0.465351,-0.417092
5.746000,0.307468,0.508271,-0.481763
5.766000,0.342986,0.557940,-0.547286
5.786000,0.370948,0.616173,-0.607985
5.806000,0.391289,0.685159,-0.648711
5.826000,0.398953,0.764524,-0.659518
5.846000,0.405468,0.847830,-0.637707
5.866000,0.421566,0.930841,-0.594221
5.886000,0.450351,1.009930,-0.547210
5.906000,0.487148,1.083127,-0.504179
5.926000,0.527192,1.150581,-0.466497
5.946000,0.570534,1.212571,-0.429588
5.966000,0.612693,1.267795,-0.399568
5.986000,0.649225,1.315094,-0.380485
6.006000,0.678346,1.355102,-0.373469
6.026000,0.699796,1.388117,-0.376377
6.046000,0.716973,1.415854,-0.386352
6.066000,0.736224,1.439403,-0.402394
6.086000,0.761964,1.458570,-0.425276
6.106000,0.789925,1.472691,-0.456820
6.126000,0.809037,1.483763,-0.500842
6.146000,0.810518,1.494393,-0.556010
6.166000,0.793109,1.508901,-0.610140
6.186000,0.776083,1.523914,-0.658991
6.206000,0.776841,1.534641,-0.707162
6.226000,0.788871,1.540023,-0.758055
6.246000,0.806670,1.544743,-0.804381
6.266000,0.830579,1.552015,-0.838282
6.286000,0.858248,1.563495,-0.855896
6.306000,0.886450,1.578831,-0.858343
6.326000,0.913707,1.596985,-0.849047
6.346000,0.940015,1.616860,-0.835841
6.366000,0.964452,1.638542,-0.823225
6.386000,0.980822,1.664537,-0.815432
6.406000,0.985905,1.697218,-0.814152
6.426000,0.987257,1.734719,-0.816680
