accel_time_list,accel_x_list,accel_y_list,accel_z_list
0.704,-15.53597,-4.74052,5.475539
0.724,-15.80652,-5.582081,5.712565
0.744,-15.68236,-6.299738,5.783823
0.764,-15.23566,-6.792437,5.72507
0.784,-14.63417,-7.019623,5.61234
0.804,-14.0194,-6.909934,5.501151
0.824,-13.51556,-6.542404,5.462772
0.844,-13.13598,-6.052061,5.526923
0.864,-12.79325,-5.533707,5.610696
0.884,-12.42122,-5.06894,5.637517
0.904,-12.03265,-4.74434,5.628465
0.924,-11.63821,-4.545983,5.617073
0.944,-11.25748,-4.43942,5.620814
0.964,-10.91086,-4.380827,5.617031
0.984,-10.59664,-4.349275,5.589027
1.004,-10.31118,-4.343364,5.556385
1.027,-10.06511,-4.335141,5.533011
1.047,-9.873487,-4.303983,5.506067
1.067,-9.727694,-4.239594,5.473866
1.087,-9.604634,-4.154724,5.445063
1.107,-9.496047,-4.065258,5.431044
1.127,-9.405458,-3.960097,5.42726
1.147,-9.334045,-3.843598,5.428144
1.167,-9.280129,-3.754733,5.419838
1.187,-9.23144,-3.691377,5.408229
1.207,-9.181156,-3.631016,5.395794
1.227,-9.140429,-3.578323,5.382157
1.247,-9.10913,-3.535898,5.366812
1.267,-9.075221,-3.501281,5.343185
1.287,-9.039294,-3.469438,5.318543
1.307,-9.005435,-3.428996,5.297449
1.327,-8.968663,-3.38682,5.275558
1.347,-8.921752,-3.34438,5.249832
1.367,-8.875886,-3.302551,5.223408
1.387,-8.837863,-3.264874,5.20201
1.407,-8.803858,-3.228093,5.185143
1.427,-8.761391,-3.19065,5.166992
1.447,-8.708441,-3.152092,5.14337
1.467,-8.660872,-3.113174,5.120816
1.487,-8.624014,-3.076125,5.107198
1.507,-8.581031,-3.037127,5.100071
1.527,-8.523023,-2.994643,5.090587
1.547,-8.463189,-2.952535,5.07847
1.567,-8.419207,-2.913272,5.071807
1.587,-8.380155,-2.877409,5.075098
1.607,-8.317384,-2.840746,5.080661
1.627,-8.233101,-2.800984,5.078904
1.647,-8.14887,-2.760256,5.074683
1.667,-8.071952,-2.719646,5.074327
1.687,-7.990458,-2.677164,5.078912
1.707,-7.88658,-2.633698,5.081957
1.727,-7.764178,-2.589649,5.077092
1.747,-7.64171,-2.549731,5.069822
1.767,-7.524928,-2.51444,5.063071
1.787,-7.402442,-2.481239,5.055459
1.807,-7.265905,-2.448259,5.040096
1.827,-7.123435,-2.416999,5.014889
1.847,-6.99661,-2.387988,4.985056
1.867,-6.891597,-2.357459,4.955667
1.887,-6.800229,-2.323233,4.929864
1.907,-6.728892,-2.285873,4.910319
1.927,-6.697701,-2.234747,4.904565
1.947,-6.71001,-2.158235,4.886778
1.967,-6.736008,-2.073202,4.833957
1.987,-6.816998,-2.016407,4.746912
2.007,-7.029599,-1.936361,4.628432
2.027,-7.333944,-1.876432,4.517046
2.047,-7.551477,-1.913367,4.388844
2.067,-7.723193,-2.018225,4.243163
2.087,-7.832491,-2.100957,4.024328
2.107,-7.664238,-2.128507,3.671969
2.127,-6.823049,-2.047244,3.312017
2.147,-5.816209,-1.971346,3.66633
2.167,-5.814868,-2.252559,6.612206
2.187,-5.015948,-3.717895,17.51917
2.207,-2.043525,-9.113179,23.26283
2.227,0.649283,-13.49599,17.4754
2.247,2.749666,-7.072555,13.0921
2.267,2.324689,0.551447,12.23077
2.287,-0.724289,0.628361,10.88759
2.307,-3.434271,-2.473235,9.364211
2.327,-4.368774,-4.366508,7.66987
2.347,-4.031577,-4.640381,6.044043
2.367,-2.846314,-4.289783,5.059755
2.387,-1.131349,-3.667639,4.437488
2.407,0.883605,-2.718638,3.811338
2.427,2.646472,-1.710377,3.534672
2.447,3.561614,-1.08335,3.651736
2.467,4.0436,-0.824784,3.884866
2.487,4.434655,-0.628246,4.124752
2.507,4.555158,-0.574155,4.338266
2.527,4.611433,-0.561898,4.494841
2.547,4.667527,-0.44405,4.706155
2.567,4.59007,-0.379191,5.024836
2.587,4.48384,-0.336064,5.441085
2.607,4.382038,-0.32184,5.932999
2.627,4.247797,-0.389749,6.423776
2.647,4.125887,-0.490481,6.865059
2.667,4.030542,-0.572865,7.238174
2.687,3.92439,-0.670726,7.545856
2.875,3.733174,-0.63315,7.828237
2.895,3.555884,-0.609374,8.079247
2.915,3.395508,-0.602385,8.307983
2.935,3.250739,-0.614647,8.511899
2.955,3.119432,-0.640333,8.691863
2.975,2.999612,-0.676449,8.845222
2.995,2.902673,-0.724635,8.968517
3.015,2.832959,-0.772295,9.06532
3.035,2.780252,-0.814882,9.138946
3.055,2.73956,-0.849717,9.201303
3.075,2.705862,-0.875676,9.266217
3.095,2.67542,-0.899332,9.325941
3.115,2.646891,-0.911221,9.387774
3.135,2.615273,-0.908564,9.451122
3.155,2.58177,-0.89756,9.513884
3.175,2.545809,-0.875501,9.577922
3.195,2.50608,-0.846892,9.641478
3.215,2.465501,-0.81523,9.7017
3.235,2.427624,-0.781399,9.75611
3.255,2.393957,-0.751776,9.797809
3.275,2.364752,-0.724597,9.819105
3.295,2.332982,-0.689878,9.835791
3.315,2.298575,-0.647569,9.858434
3.335,2.268101,-0.605735,9.885283
3.355,2.24299,-0.57048,9.91642
3.375,2.220387,-0.546826,9.951784
3.395,2.201665,-0.530602,9.986492
3.415,2.185331,-0.527028,10.01834
3.435,2.171424,-0.535678,10.04618
3.455,2.156899,-0.550862,10.07049
3.475,2.140769,-0.569125,10.09377
3.495,2.125512,-0.584479,10.11652
3.515,2.110335,-0.592797,10.13992
3.535,2.091913,-0.59453,10.16401
3.555,2.07391,-0.592516,10.18681
3.575,2.05904,-0.590272,10.2051
3.595,2.046163,-0.585279,10.21999
3.615,2.033315,-0.575513,10.23308
3.635,2.02132,-0.561865,10.2463
3.655,2.010458,-0.546473,10.25983
3.675,2.000346,-0.532026,10.27347
3.695,1.990369,-0.519494,10.28654
3.715,1.979797,-0.509744,10.29985
3.735,1.969621,-0.503545,10.31285
3.755,1.959669,-0.500914,10.32604
3.775,1.950078,-0.501039,10.33829
3.795,1.940925,-0.502134,10.35033
3.815,1.932095,-0.503102,10.36167
3.835,1.92357,-0.503695,10.37324
3.855,1.915614,-0.503049,10.3837
3.875,1.908518,-0.500526,10.39368
3.895,1.901302,-0.495889,10.40359
3.915,1.894016,-0.490434,10.41269
3.935,1.886792,-0.485299,10.42118
3.955,1.879326,-0.480667,10.42888
3.975,1.871585,-0.477287,10.43536
3.995,1.864789,-0.474159,10.44296
4.015,1.85919,-0.471311,10.45142
4.035,1.853845,-0.468397,10.46069
4.055,1.847098,-0.465895,10.46947
4.075,1.840863,-0.464111,10.47556
4.095,1.835278,-0.46401,10.48023
4.115,1.830124,-0.463108,10.48476
4.135,1.82466,-0.459577,10.49184
4.155,1.819763,-0.455933,10.49926
4.175,1.815412,-0.453628,10.50588
4.195,1.810742,-0.452082,10.51106
4.215,1.80551,-0.450248,10.51589
4.235,1.800308,-0.448365,10.52065
4.255,1.794605,-0.446689,10.52596
4.275,1.789258,-0.445562,10.5318
4.295,1.784634,-0.444308,10.53684
4.315,1.780369,-0.442652,10.54161
4.335,1.776517,-0.44073,10.54632
4.355,1.772829,-0.438129,10.55137
4.375,1.769731,-0.435678,10.556
4.395,1.766416,-0.433518,10.56021
4.415,1.762405,-0.431555,10.5642
4.435,1.758457,-0.429925,10.56829
4.455,1.754571,-0.428447,10.57164
4.475,1.750524,-0.427654,10.57534
4.495,1.74657,-0.42744,10.57878
4.515,1.743228,-0.426788,10.58295
4.535,1.740786,-0.424669,10.58796
4.555,1.737738,-0.422051,10.59275
4.575,1.733833,-0.419756,10.59674
4.595,1.730692,-0.419267,10.5987
4.615,1.727386,-0.419079,10.60038
4.635,1.724064,-0.417224,10.60359
4.655,1.721244,-0.414604,10.60755
4.675,1.719139,-0.413522,10.61127
4.695,1.716995,-0.412843,10.61429
4.715,1.71434,-0.4116,10.61692
4.735,1.711573,-0.410181,10.61934
4.755,1.708645,-0.409061,10.62174
4.775,1.70572,-0.408233,10.62432
4.795,1.703043,-0.407177,10.6271
4.815,1.700819,-0.406094,10.63001
4.835,1.698772,-0.405074,10.63275
4.855,1.696557,-0.403968,10.63549
5.344,1.694151,-0.402682,10.63831
5.364,1.691972,-0.402174,10.64094
5.384,1.690218,-0.40184,10.64397
5.404,1.688245,-0.400742,10.64644
5.424,1.686235,-0.399129,10.64931
5.444,1.684362,-0.397532,10.65202
5.464,1.6825,-0.39631,10.65457
5.484,1.680574,-0.395507,10.65631
5.504,1.678174,-0.394976,10.65824
5.524,1.675577,-0.394426,10.66068
5.544,1.673881,-0.393929,10.66304
5.564,1.673351,-0.392528,10.66529
5.584,1.672251,-0.390279,10.6683
5.604,1.670277,-0.388435,10.67108
5.624,1.668658,-0.388285,10.6727
5.644,1.666839,-0.388616,10.67347
5.664,1.664608,-0.387316,10.67495
5.684,1.66259,-0.385789,10.67676
5.704,1.661359,-0.385355,10.67873
5.724,1.660308,-0.384973,10.68108
5.744,1.659004,-0.3839,10.68349
5.764,1.65733,-0.382527,10.68523
5.784,1.655241,-0.381815,10.68672
5.804,1.653174,-0.38142,10.68787
5.824,1.651438,-0.380766,10.68953
5.844,1.64984,-0.379353,10.69166
5.864,1.648568,-0.378289,10.69351
5.884,1.647406,-0.37781,10.69547
5.904,1.646111,-0.377144,10.69721
5.924,1.644757,-0.376102,10.69891
5.944,1.643345,-0.374855,10.70122
5.964,1.64178,-0.374123,10.70283
5.984,1.640278,-0.373614,10.70431
6.004,1.638719,-0.373206,10.7056
6.024,1.637248,-0.372562,10.70731
6.044,1.635336,-0.372069,10.7086
6.064,1.633875,-0.371987,10.71004
6.084,1.633074,-0.371141,10.712
6.104,1.632402,-0.369416,10.71449
6.124,1.630946,-0.367207,10.71697
6.144,1.629265,-0.366408,10.71804
6.164,1.627864,-0.367316,10.71779
6.184,1.626573,-0.367354,10.71847
6.204,1.62508,-0.365668,10.72067
6.224,1.624319,-0.364405,10.72324
6.244,1.623351,-0.36452,10.72528
6.264,1.622177,-0.364203,10.72668
6.284,1.620608,-0.363003,10.72756
6.304,1.61915,-0.361791,10.72879
6.324,1.617635,-0.361382,10.73027
6.344,1.616135,-0.361024,10.73195
6.364,1.614722,-0.360143,10.73361
6.384,1.613802,-0.359127,10.73504
6.404,1.613106,-0.358457,10.73639
6.424,1.612035,-0.357937,10.73758
6.444,1.610735,-0.357159,10.73902
6.464,1.609591,-0.356508,10.74071
6.484,1.608387,-0.356056,10.74214
6.504,1.607363,-0.355583,10.74296
6.524,1.606301,-0.354925,10.7439
6.544,1.605273,-0.35444,10.74518
6.564,1.604304,-0.353793,10.74633
6.584,1.602794,-0.353535,10.7472
6.604,1.601586,-0.353447,10.74826
6.624,1.601252,-0.352714,10.74969
6.644,1.600754,-0.35091,10.7517
6.664,1.599088,-0.349053,10.75372
6.684,1.59763,-0.349202,10.75407
6.704,1.596497,-0.35081,10.75326
6.724,1.595065,-0.350773,10.75361
6.744,1.593983,-0.349037,10.75573
6.764,1.593413,-0.34818,10.75761
6.784,1.593137,-0.34841,10.75894
6.804,1.592481,-0.34799,10.76015
6.824,1.591233,-0.346809,10.76084
6.844,1.589757,-0.345878,10.76166
6.864,1.588584,-0.345939,10.76233
6.884,1.587255,-0.345712,10.76374
6.904,1.58637,-0.345008,10.76497
6.924,1.585973,-0.344623,10.76604
6.944,1.585604,-0.344313,10.76672
6.964,1.584807,-0.343934,10.76775
6.984,1.583875,-0.343368,10.76891
7.004,1.583072,-0.342544,10.77021
7.024,1.582061,-0.341967,10.77127
7.044,1.581156,-0.341493,10.77211
7.064,1.579926,-0.341071,10.7728
7.084,1.57909,-0.340796,10.77358
7.104,1.578095,-0.340453,10.77435
7.124,1.576847,-0.340687,10.77547
7.144,1.57609,-0.340776,10.77634
7.164,1.576514,-0.339763,10.7777
7.184,1.576072,-0.337562,10.77946
7.204,1.575012,-0.336054,10.78063
7.224,1.574297,-0.336524,10.78113
7.244,1.573207,-0.33754,10.78121
7.264,1.571792,-0.337086,10.78159
7.284,1.570679,-0.336133,10.78271
7.304,1.570295,-0.336172,10.78377
7.324,1.570178,-0.336449,10.7847
7.451,1.569225,-0.335838,10.78545
7.471,1.568472,-0.335879,10.78625
7.491,1.56756,-0.335968,10.78689
7.511,1.566537,-0.335865,10.78765
7.531,1.565476,-0.335307,10.78854
7.551,1.564521,-0.334612,10.78904
7.571,1.563648,-0.334067,10.78951
7.591,1.562593,-0.333671,10.79014
7.611,1.561619,-0.333303,10.79087
7.631,1.560655,-0.332891,10.79147
7.651,1.559366,-0.332579,10.79203
7.671,1.557635,-0.33306,10.79243
7.691,1.55652,-0.333344,10.79289
7.711,1.556684,-0.332621,10.79368
7.731,1.556321,-0.330635,10.79544
7.751,1.55529,-0.32946,10.79657
7.771,1.554486,-0.330163,10.79646
7.791,1.55321,-0.331171,10.79588
7.811,1.55178,-0.330756,10.79616
7.831,1.550867,-0.329915,10.79702
7.851,1.550585,-0.330183,10.79808
7.871,1.550378,-0.330114,10.7992
7.891,1.549766,-0.329063,10.79995
7.911,1.548801,-0.328238,10.80022
7.931,1.547966,-0.327901,10.80034
7.951,1.546756,-0.328572,10.80168
7.971,1.544767,-0.330937,10.80583
7.991,1.544307,-0.334475,10.81013
8.011,1.544523,-0.337307,10.81367
8.031,1.544089,-0.338148,10.82086
8.051,1.537555,-0.343146,10.83476
8.071,1.535946,-0.355684,10.84696
8.091,1.538519,-0.360627,10.85892
8.111,1.535583,-0.365113,10.88069
8.131,1.528033,-0.374941,10.90867
8.151,1.522688,-0.382756,10.93586
8.171,1.523191,-0.385129,10.95734
8.191,1.527903,-0.387646,10.97342
8.211,1.53173,-0.394663,10.98842
8.231,1.534848,-0.402664,10.99889
8.251,1.541311,-0.413146,10.99909
8.271,1.552138,-0.425822,10.98927
8.291,1.566065,-0.42956,10.98005
8.311,1.579039,-0.418776,10.97646
8.331,1.595834,-0.412123,10.96701
8.351,1.61622,-0.407858,10.95457
8.371,1.633792,-0.407825,10.93948
8.391,1.654564,-0.408751,10.91716
8.411,1.68188,-0.404209,10.8885
8.431,1.711772,-0.39205,10.85458
8.451,1.743065,-0.373717,10.81999
8.471,1.772106,-0.350586,10.78802
8.491,1.801407,-0.32017,10.75554
8.511,1.834725,-0.277703,10.72017
8.531,1.871635,-0.227473,10.68178
8.551,1.91129,-0.177434,10.6425
8.571,1.950691,-0.130385,10.6023
8.591,1.989387,-0.08328,10.56178
8.611,2.028582,-0.033797,10.52444
8.631,2.068846,0.016532,10.48911
8.651,2.109904,0.066333,10.4544
8.671,2.148875,0.113554,10.42172
8.691,2.188128,0.16059,10.38938
8.711,2.231105,0.209502,10.35676
8.731,2.270189,0.265818,10.32351
8.751,2.316738,0.315584,10.28861
8.771,2.356554,0.363331,10.25753
8.791,2.395266,0.41532,10.22934
8.811,2.434387,0.471032,10.20176
8.831,2.470259,0.532304,10.17587
8.851,2.503689,0.603815,10.15436
8.871,2.539339,0.659857,10.12905
8.891,2.578647,0.715104,10.10589
8.911,2.618931,0.774134,10.08733
8.931,2.659781,0.822284,10.06626
8.951,2.695755,0.871383,10.04571
8.971,2.734874,0.933125,10.02841
8.991,2.775351,0.996922,10.01179
9.011,2.815464,1.06052,9.994293
9.031,2.855668,1.120479,9.97479
9.051,2.892698,1.179619,9.954427
9.071,2.93029,1.236478,9.933134
9.091,2.964765,1.295382,9.913441
9.111,3.000803,1.357227,9.894375
9.131,3.036175,1.419812,9.875602
9.151,3.074808,1.473538,9.854159
9.171,3.110737,1.530762,9.832746
9.191,3.150272,1.583183,9.811174
9.211,3.184823,1.640465,9.7922
9.231,3.219835,1.708201,9.771887
9.251,3.252092,1.773332,9.749843
9.271,3.290946,1.82518,9.727803
9.291,3.322761,1.889193,9.707313
9.311,3.36399,1.949272,9.684595
9.331,3.398787,2.006725,9.663953
9.351,3.427712,2.064203,9.643243
9.371,3.461339,2.104724,9.623017
9.391,3.488139,2.154697,9.608295
9.411,3.523768,2.210761,9.59332
9.431,3.560502,2.265875,9.576082
