gyro_time_list,gyro_x_list,gyro_y_list,gyro_z_list
0.015000,-0.110315,0.005596,-0.006129
0.035000,-0.068814,0.069480,-0.118509
0.055000,0.010391,0.100981,-0.166178
0.075000,-0.009425,0.106167,-0.181860
0.095000,-0.018208,0.113125,-0.202410
0.115000,0.037200,0.128996,-0.201778
0.135000,0.071480,0.129471,-0.200542
0.155000,0.048232,0.120719,-0.200303
0.175000,-0.003258,0.108097,-0.193701
0.195000,-0.060886,0.090860,-0.190953
0.215000,-0.116936,0.073808,-0.191291
0.235000,-0.155761,0.063375,-0.190254
0.255000,-0.166144,0.060422,-0.187655
0.275000,-0.149807,0.064674,-0.184441
0.295000,-0.113719,0.074275,-0.181117
0.315000,-0.070486,0.085462,-0.178578
0.335000,-0.032899,0.095886,-0.175577
0.355000,-0.000908,0.104255,-0.169365
0.375000,0.027711,0.109209,-0.160295
0.395000,0.041952,0.111159,-0.148898
0.415000,0.042182,0.109958,-0.135344
0.435000,0.032027,0.104175,-0.123187
0.455000,0.018878,0.094879,-0.111475
0.475000,0.009027,0.085386,-0.101502
0.495000,0.001866,0.076224,-0.092863
0.515000,-0.002527,0.067867,-0.084968
0.535000,-0.002821,0.061150,-0.076948
0.555000,0.000419,0.056414,-0.069911
0.575000,0.004639,0.053388,-0.064266
0.595000,0.008653,0.051499,-0.059556
0.615000,0.011579,0.050578,-0.055607
0.635000,0.010062,0.050412,-0.053192
0.655000,0.005044,0.050657,-0.052189
0.675000,0.001772,0.051623,-0.051725
0.695000,-0.000022,0.052171,-0.052886
0.715000,-0.006837,0.050922,-0.058642
0.735000,-0.018515,0.048651,-0.066727
0.755000,-0.027562,0.048064,-0.072687
0.775000,-0.028123,0.050024,-0.074281
0.795000,-0.022335,0.053124,-0.072500
0.815000,-0.014790,0.056024,-0.070405
0.835000,-0.007629,0.058509,-0.069089
0.855000,-0.003982,0.060530,-0.068464
0.875000,-0.001472,0.062668,-0.068000
0.895000,0.002045,0.065166,-0.068095
0.915000,0.010256,0.067588,-0.068918
0.935000,0.022796,0.067306,-0.071505
0.955000,0.030871,0.067042,-0.074630
0.975000,0.036879,0.066637,-0.078591
0.995000,0.044397,0.067500,-0.080968
1.015000,0.050447,0.069642,-0.082913
1.035000,0.054002,0.071838,-0.085148
1.055000,0.053102,0.072913,-0.087308
1.075000,0.048164,0.073168,-0.087897
1.095000,0.039177,0.073056,-0.087493
1.115000,0.030189,0.072174,-0.085927
1.135000,0.022635,0.070817,-0.083614
1.155000,0.016082,0.069059,-0.081106
1.175000,0.010230,0.066702,-0.078536
1.195000,0.004844,0.064043,-0.075681
1.215000,0.000849,0.061201,-0.072326
1.235000,-0.001889,0.058007,-0.068950
1.255000,-0.004393,0.054730,-0.065839
1.275000,-0.007862,0.051205,-0.062853
1.295000,-0.011880,0.047621,-0.059946
1.315000,-0.016253,0.044429,-0.056859
1.335000,-0.020445,0.041558,-0.053869
1.355000,-0.024146,0.039024,-0.050770
1.375000,-0.027265,0.036751,-0.047521
1.395000,-0.030077,0.034585,-0.044204
1.415000,-0.032963,0.032397,-0.040975
1.435000,-0.035813,0.030286,-0.037909
1.455000,-0.037955,0.028275,-0.034821
1.475000,-0.039379,0.026335,-0.031952
1.495000,-0.040713,0.024462,-0.029165
1.515000,-0.041313,0.022585,-0.026600
1.535000,-0.042607,0.020720,-0.024679
1.555000,-0.045228,0.018831,-0.023026
1.575000,-0.048269,0.017107,-0.021355
1.595000,-0.052016,0.015392,-0.019731
1.615000,-0.056184,0.013742,-0.018001
1.635000,-0.060075,0.012151,-0.015712
1.655000,-0.064109,0.010383,-0.012926
1.675000,-0.070108,0.008173,-0.009692
1.695000,-0.077600,0.006021,-0.006003
1.715000,-0.084454,0.004049,-0.001960
1.735000,-0.088915,0.002240,0.001337
1.755000,-0.090516,0.000370,0.002989
1.775000,-0.093065,-0.000936,0.002026
1.795000,-0.095411,-0.001389,-0.000063
1.815000,-0.094466,-0.001108,-0.002389
1.835000,-0.090067,-0.000762,-0.005299
1.855000,-0.084109,-0.000480,-0.009819
1.875000,-0.077366,-0.000417,-0.015460
1.895000,-0.069010,-0.000077,-0.021679
1.915000,-0.062526,0.001036,-0.028391
1.935000,-0.060745,0.003798,-0.035118
1.955000,-0.058282,0.007461,-0.040745
1.975000,-0.052007,0.011979,-0.045183
1.995000,-0.042715,0.016714,-0.048227
2.047000,-0.032422,0.020349,-0.048479
2.067000,-0.024015,0.023223,-0.047402
2.087000,-0.018213,0.025905,-0.045129
2.107000,-0.018201,0.026507,-0.045156
2.127000,-0.018130,0.026439,-0.044264
2.147000,-0.016703,0.025908,-0.043078
2.167000,-0.016864,0.024846,-0.041773
2.187000,-0.019224,0.023543,-0.040692
2.207000,-0.022180,0.022660,-0.040080
2.227000,-0.023820,0.022328,-0.039774
2.247000,-0.023812,0.022225,-0.039148
2.267000,-0.023802,0.022115,-0.038548
2.287000,-0.024523,0.022181,-0.038325
2.307000,-0.025509,0.022486,-0.038474
2.327000,-0.025416,0.022897,-0.038461
2.347000,-0.025250,0.023148,-0.039038
2.367000,-0.024595,0.022960,-0.039658
2.387000,-0.023878,0.022577,-0.040458
2.407000,-0.023750,0.022295,-0.041356
2.427000,-0.023850,0.022656,-0.041989
2.447000,-0.022759,0.023863,-0.041556
2.467000,-0.020042,0.025613,-0.040139
2.487000,-0.017622,0.027396,-0.038178
2.507000,-0.015592,0.028797,-0.035498
2.527000,-0.013881,0.030061,-0.031892
2.547000,-0.013973,0.030260,-0.029253
2.567000,-0.014409,0.029571,-0.026804
2.587000,-0.014879,0.028629,-0.025217
2.607000,-0.015964,0.027659,-0.024809
2.627000,-0.017781,0.026556,-0.025226
2.647000,-0.020049,0.025532,-0.026363
2.667000,-0.021424,0.024793,-0.027559
2.687000,-0.021476,0.024569,-0.028604
2.707000,-0.021808,0.024389,-0.030339
2.727000,-0.022025,0.023961,-0.032299
2.747000,-0.021318,0.023770,-0.033905
2.767000,-0.020166,0.024076,-0.034973
2.787000,-0.019511,0.024762,-0.035474
2.807000,-0.019720,0.025636,-0.035429
2.827000,-0.020402,0.026648,-0.034767
2.847000,-0.021108,0.027859,-0.033198
2.867000,-0.021686,0.028045,-0.032274
2.887000,-0.021993,0.028039,-0.031136
2.907000,-0.022737,0.027636,-0.029628
2.927000,-0.024973,0.026742,-0.028689
2.947000,-0.027581,0.025767,-0.027797
2.967000,-0.029158,0.024983,-0.026552
2.987000,-0.029976,0.024320,-0.025377
3.007000,-0.031096,0.023555,-0.024434
3.027000,-0.033231,0.022609,-0.024420
3.047000,-0.034743,0.021750,-0.024483
3.067000,-0.035455,0.021131,-0.024723
3.087000,-0.036567,0.020241,-0.025738
3.107000,-0.037563,0.019204,-0.027376
3.131000,-0.037245,0.018338,-0.029353
3.151000,-0.035874,0.017710,-0.031238
3.171000,-0.034299,0.017335,-0.033385
3.191000,-0.032772,0.017374,-0.035724
3.211000,-0.030280,0.017946,-0.037883
3.231000,-0.027522,0.019058,-0.039806
3.251000,-0.024861,0.020449,-0.041199
3.271000,-0.022682,0.021747,-0.042448
3.291000,-0.021398,0.022765,-0.043511
3.311000,-0.020910,0.023420,-0.044092
3.331000,-0.021029,0.023848,-0.043966
3.351000,-0.021368,0.024109,-0.043130
3.371000,-0.022198,0.024215,-0.041794
3.391000,-0.023693,0.024040,-0.040352
3.411000,-0.025832,0.023522,-0.039022
3.431000,-0.028214,0.022819,-0.037729
3.451000,-0.030282,0.022022,-0.036495
3.471000,-0.031845,0.021386,-0.035459
3.491000,-0.033104,0.020873,-0.034651
3.511000,-0.034069,0.020450,-0.033934
3.531000,-0.034600,0.020226,-0.033116
3.551000,-0.034560,0.020138,-0.032356
3.571000,-0.034088,0.019999,-0.031666
3.591000,-0.033858,0.019754,-0.031511
3.611000,-0.033779,0.019354,-0.031907
3.631000,-0.032699,0.019091,-0.032196
3.651000,-0.031057,0.019127,-0.032533
3.671000,-0.030011,0.019137,-0.033041
3.691000,-0.029503,0.019035,-0.033633
3.711000,-0.029285,0.018866,-0.033938
3.731000,-0.029348,0.018737,-0.033789
3.751000,-0.029758,0.018708,-0.033073
3.771000,-0.030524,0.018738,-0.031881
3.791000,-0.032420,0.018487,-0.030868
3.811000,-0.035465,0.017654,-0.030562
3.831000,-0.038954,0.016656,-0.030563
3.851000,-0.042491,0.015772,-0.030531
3.871000,-0.045490,0.015272,-0.030616
3.891000,-0.047576,0.015200,-0.031381
3.911000,-0.048977,0.015375,-0.032662
3.931000,-0.048827,0.015882,-0.033446
3.951000,-0.047519,0.016843,-0.033730
3.971000,-0.047044,0.018084,-0.033840
3.991000,-0.047417,0.019546,-0.033823
4.011000,-0.046490,0.021330,-0.032851
4.031000,-0.044364,0.023347,-0.031403
4.083000,-0.044525,0.023587,-0.030207
4.103000,-0.044098,0.023058,-0.028370
4.123000,-0.043047,0.022385,-0.026433
4.143000,-0.043730,0.021667,-0.025209
4.163000,-0.045413,0.021084,-0.024691
4.183000,-0.045604,0.021023,-0.024079
4.203000,-0.044746,0.021371,-0.023680
4.223000,-0.044475,0.021650,-0.023737
4.243000,-0.044618,0.021859,-0.023837
4.263000,-0.044872,0.022000,-0.023785
4.283000,-0.045350,0.022049,-0.023637
4.303000,-0.045987,0.022099,-0.023356
4.323000,-0.046708,0.022125,-0.023163
4.343000,-0.047644,0.022230,-0.023184
4.363000,-0.048546,0.022483,-0.023271
4.383000,-0.048626,0.022849,-0.023366
4.403000,-0.048908,0.022831,-0.024090
4.423000,-0.049282,0.022260,-0.024912
4.443000,-0.049167,0.021241,-0.025750
4.463000,-0.048352,0.019850,-0.026723
4.483000,-0.047589,0.018292,-0.028031
4.503000,-0.046676,0.016932,-0.029526
4.523000,-0.046160,0.016024,-0.031815
4.543000,-0.044855,0.015695,-0.033073
4.563000,-0.042175,0.015975,-0.034171
4.583000,-0.039488,0.016903,-0.034538
4.603000,-0.037733,0.018326,-0.034639
4.623000,-0.036607,0.019881,-0.034200
4.643000,-0.035558,0.021445,-0.033553
4.663000,-0.034959,0.022792,-0.032481
4.683000,-0.034711,0.023603,-0.031256
4.703000,-0.034646,0.023844,-0.029649
4.723000,-0.035503,0.023411,-0.028164
4.743000,-0.036319,0.022800,-0.025872
4.763000,-0.037811,0.021716,-0.024100
4.783000,-0.039358,0.020275,-0.022697
4.803000,-0.039787,0.019057,-0.021430
4.823000,-0.039926,0.018326,-0.020262
4.843000,-0.040341,0.017902,-0.019430
4.863000,-0.041128,0.017904,-0.019229
4.883000,-0.042017,0.018270,-0.019514
4.903000,-0.042315,0.018817,-0.019955
4.923000,-0.042496,0.019535,-0.020403
4.943000,-0.042718,0.020451,-0.020912
4.963000,-0.043047,0.021373,-0.021337
4.983000,-0.044339,0.021545,-0.021751
5.003000,-0.046006,0.021282,-0.023528
5.023000,-0.047248,0.020866,-0.024098
5.043000,-0.048655,0.019782,-0.024567
5.063000,-0.049358,0.019340,-0.024886
5.083000,-0.049693,0.019301,-0.025333
5.103000,-0.051183,0.019603,-0.026232
5.123000,-0.052153,0.020892,-0.026581
5.143000,-0.052397,0.022548,-0.026255
5.163000,-0.053256,0.023407,-0.025997
5.183000,-0.053082,0.024512,-0.025857
5.203000,-0.051419,0.026310,-0.025829
5.223000,-0.049334,0.028166,-0.026368
5.243000,-0.046080,0.029786,-0.026263
5.263000,-0.043450,0.030980,-0.026392
5.283000,-0.043243,0.031415,-0.026340
5.303000,-0.042959,0.031714,-0.026382
5.323000,-0.042503,0.031707,-0.025736
5.343000,-0.043423,0.031200,-0.025325
5.363000,-0.046835,0.030792,-0.025278
5.383000,-0.050613,0.030512,-0.025115
5.403000,-0.053362,0.029856,-0.024453
5.423000,-0.055057,0.029051,-0.023981
5.443000,-0.055603,0.028365,-0.023432
5.463000,-0.055697,0.027814,-0.022975
5.483000,-0.055416,0.027477,-0.022455
5.503000,-0.054920,0.027319,-0.021738
5.523000,-0.054266,0.027329,-0.020957
5.543000,-0.052969,0.027178,-0.020194
5.563000,-0.051355,0.027127,-0.019667
5.583000,-0.049600,0.027162,-0.019187
5.603000,-0.047963,0.027099,-0.018680
5.623000,-0.046706,0.027006,-0.018205
5.643000,-0.045784,0.027093,-0.017892
5.663000,-0.045357,0.027388,-0.017706
5.683000,-0.045194,0.027854,-0.017549
5.703000,-0.045171,0.028415,-0.017368
5.723000,-0.045267,0.028958,-0.017325
5.743000,-0.045523,0.029516,-0.017273
5.763000,-0.045904,0.030068,-0.017286
5.783000,-0.046149,0.030563,-0.017254
5.803000,-0.046242,0.030941,-0.017292
5.823000,-0.046192,0.031133,-0.017251
5.843000,-0.046090,0.031250,-0.017160
5.863000,-0.045991,0.031369,-0.017079
5.883000,-0.046018,0.031504,-0.016993
5.903000,-0.046260,0.031664,-0.016777
5.923000,-0.046491,0.031741,-0.016518
5.943000,-0.046670,0.031752,-0.016212
5.963000,-0.046847,0.031659,-0.015907
5.983000,-0.047038,0.031554,-0.015674
6.003000,-0.047344,0.031417,-0.015452
6.023000,-0.047757,0.031284,-0.015301
6.043000,-0.047980,0.031136,-0.015081
6.063000,-0.048289,0.031059,-0.014853
