accel_time_list,accel_x_list,accel_y_list,accel_z_list
0.68,-9.141062,-4.446033,1.764527
0.7,-9.010578,-4.380192,1.689109
0.72,-8.889458,-4.343049,1.594443
0.74,-8.743468,-4.348452,1.524232
0.76,-8.594345,-4.345459,1.463796
0.78,-8.483716,-4.319891,1.402196
0.8,-8.403552,-4.280698,1.358152
0.82,-8.3416,-4.257265,1.337813
0.84,-8.275501,-4.236355,1.328734
0.86,-8.231194,-4.247824,1.346154
0.88,-8.21287,-4.304121,1.376463
0.9,-8.192526,-4.36882,1.416906
0.92,-8.136583,-4.429481,1.454016
0.94,-8.031335,-4.469087,1.474198
0.96,-7.902739,-4.50445,1.480435
0.98,-7.770517,-4.560135,1.475189
1,-7.640359,-4.623968,1.46827
1.02,-7.509295,-4.695103,1.459684
1.04,-7.39547,-4.770918,1.459083
1.06,-7.309992,-4.835962,1.470873
1.08,-7.249554,-4.879998,1.501566
1.1,-7.205735,-4.903085,1.547346
1.12,-7.178733,-4.901176,1.604867
1.14,-7.171128,-4.881963,1.648923
1.16,-7.189173,-4.861639,1.673322
1.18,-7.249218,-4.879346,1.681137
1.2,-7.351743,-4.969599,1.670319
1.22,-7.46609,-5.12099,1.633193
1.24,-7.585269,-5.296844,1.573036
1.26,-7.744823,-5.456048,1.505649
1.28,-7.987798,-5.615153,1.445388
1.3,-8.332723,-5.801576,1.403246
1.32,-8.709409,-5.992612,1.375822
1.34,-9.018783,-6.121668,1.361651
1.36,-9.199246,-6.154756,1.354075
1.38,-9.250309,-6.107529,1.356441
1.4,-9.19275,-5.997846,1.364287
1.42,-9.053723,-5.851796,1.373535
1.44,-8.857977,-5.699254,1.377985
1.46,-8.63972,-5.558844,1.376534
1.48,-8.422297,-5.431942,1.370703
1.5,-8.206245,-5.300537,1.359353
1.52,-7.981776,-5.151172,1.343733
1.54,-7.75299,-4.991668,1.332865
1.56,-7.546349,-4.838938,1.330541
1.58,-7.376401,-4.693912,1.332785
1.6,-7.226569,-4.541636,1.339618
1.62,-7.111905,-4.381744,1.341664
1.64,-7.0781,-4.231326,1.328588
1.66,-7.134182,-4.143194,1.298606
1.68,-7.236401,-4.172794,1.24436
1.7,-7.406235,-4.41176,1.178268
1.72,-7.694982,-4.84725,1.119499
1.74,-7.975298,-5.425575,1.092453
1.76,-8.057108,-6.030133,1.084389
1.78,-8.024368,-6.379261,1.09473
1.8,-8.02287,-6.46479,1.154741
1.82,-8.013117,-6.440396,1.254851
1.84,-7.936841,-6.484838,1.355307
1.86,-7.781797,-6.639351,1.42411
1.88,-7.54843,-6.848246,1.464657
1.9,-7.229121,-7.016734,1.49193
1.92,-6.840654,-7.065223,1.527586
1.94,-6.410211,-7.009953,1.574023
1.96,-5.960586,-6.908244,1.623569
1.98,-5.519976,-6.818544,1.669737
2,-5.128677,-6.788613,1.69758
2.02,-4.852657,-6.856445,1.712648
2.04,-4.833817,-7.089064,1.766288
2.06,-5.202837,-7.617972,1.822959
2.08,-5.959099,-8.322291,1.873946
2.1,-6.950609,-8.835704,1.898
2.12,-8.109896,-8.930101,1.894
2.14,-9.273327,-8.700895,1.855553
2.16,-9.908343,-8.381873,1.782779
2.18,-9.960685,-8.09951,1.700535
2.2,-9.942825,-7.908211,1.637555
2.22,-10.08458,-7.835463,1.614449
2.24,-10.14831,-7.857228,1.61481
2.26,-10.03553,-7.907916,1.62133
2.28,-9.880789,-7.907803,1.624584
2.3,-9.72347,-7.792141,1.62613
2.32,-9.525495,-7.548863,1.614029
2.34,-9.284119,-7.17894,1.61363
2.36,-9.022135,-6.640372,1.616467
2.38,-8.696897,-5.840341,1.610609
2.4,-8.280858,-4.841249,1.608117
2.42,-7.845417,-3.930144,1.608679
2.44,-7.521497,-3.294506,1.618123
2.46,-7.425982,-3.045808,1.602062
2.48,-7.423591,-3.311837,1.525925
2.5,-7.383525,-4.249893,1.401435
2.52,-7.626844,-6.026423,1.29427
2.54,-7.9766,-7.687133,1.293286
2.56,-7.833236,-8.367013,1.357847
2.58,-7.637161,-8.325448,1.429102
2.6,-7.559427,-7.950414,1.482838
2.62,-7.532401,-7.239339,1.568421
2.64,-7.469539,-6.440838,1.697024
2.66,-7.29268,-5.679531,1.841098
4.481,-7.201061,-6.402073,1.84203
4.501,-7.060299,-6.790333,1.868842
4.521,-6.884232,-6.916971,1.913248
4.541,-6.711657,-6.846928,1.965603
4.561,-6.567452,-6.625288,2.018853
4.581,-6.460444,-6.263531,2.063627
4.601,-6.404205,-5.760566,2.0962
4.621,-6.416983,-5.110147,2.117751
4.641,-6.493879,-4.328921,2.12128
4.661,-6.606903,-3.444583,2.112544
4.681,-6.71536,-2.523878,2.117682
4.701,-6.82991,-1.793555,2.125036
4.721,-6.965494,-1.434781,2.096314
4.741,-7.06529,-1.711154,1.989899
4.761,-7.140558,-3.280773,1.834199
4.781,-7.353713,-6.788227,1.637525
4.801,-7.513846,-11.11153,1.515511
4.821,-7.439053,-14.21304,1.421154
4.841,-7.209611,-15.32043,1.342165
4.861,-6.892003,-14.99755,1.244216
4.881,-6.471923,-14.13055,1.135752
4.901,-5.896146,-13.15061,1.045786
4.921,-5.186073,-12.3261,0.983
4.941,-4.448963,-11.70426,0.932828
4.961,-3.721919,-11.15661,0.897532
4.981,-2.917484,-10.58427,0.880619
5.001,-2.022847,-9.997416,0.884983
5.021,-1.129086,-9.378414,0.905981
5.041,-0.348263,-8.756577,0.934785
5.061,0.267371,-8.273175,0.964887
5.081,0.831529,-8.076387,0.967275
5.101,1.677325,-8.469817,0.946625
5.121,2.716455,-10.29038,0.885834
5.141,2.424487,-14.06969,0.775772
5.161,0.748695,-18.55849,0.722683
5.181,-0.524046,-20.59501,0.738877
5.201,-0.80451,-20.16655,0.768714
5.221,-0.892804,-18.82364,0.79266
5.241,-1.112719,-17.08492,0.829799
5.261,-1.453401,-15.1413,0.88926
5.281,-1.820116,-13.07151,0.965962
5.301,-2.109173,-10.79914,1.032347
5.321,-2.302032,-8.216182,1.06513
5.341,-2.482727,-5.412774,1.058333
5.361,-2.708581,-2.863775,1.025124
5.381,-2.945113,-1.201968,0.979358
5.401,-3.16876,-0.425536,0.937845
5.421,-3.366741,-0.245639,0.914731
5.441,-3.527004,-0.545412,0.907968
5.461,-3.691574,-1.430807,0.889299
5.481,-3.897569,-3.004358,0.803637
5.501,-4.015307,-5.493964,0.66546
5.521,-4.155082,-9.178656,0.514905
5.541,-4.365419,-13.71818,0.352567
5.561,-4.392759,-17.38464,0.21731
5.581,-4.209658,-18.84871,0.133947
5.601,-3.910626,-18.60477,0.093615
5.621,-3.579816,-17.71738,0.08701
5.641,-3.218515,-16.57896,0.094319
5.661,-2.782786,-15.38661,0.110544
5.681,-2.237534,-14.22308,0.135508
5.701,-1.641861,-13.11366,0.169632
5.721,-1.108194,-12.10014,0.206706
5.741,-0.66816,-11.20667,0.251733
5.761,-0.254184,-10.42202,0.30024
5.781,0.172683,-9.696981,0.347465
5.801,0.604205,-8.980183,0.391038
5.821,1.028066,-8.312958,0.431766
5.841,1.445388,-7.866333,0.466825
5.861,1.911553,-7.922207,0.480702
5.881,2.459616,-8.981512,0.462987
5.901,2.733292,-11.52358,0.311785
5.921,2.072162,-15.63164,0.120472
5.941,0.867514,-19.75378,-0.0552
5.961,-0.058695,-21.42938,-0.170416
5.981,-0.655381,-20.582,-0.24253
6.001,-1.178266,-18.67883,-0.28076
6.021,-1.655539,-16.36044,-0.277717
6.041,-2.030567,-13.97201,-0.234258
6.061,-2.331367,-11.8356,-0.180376
6.081,-2.587994,-9.92204,-0.148407
6.101,-2.791781,-8.050335,-0.14282
6.121,-2.938944,-6.169102,-0.149722
6.141,-3.070915,-4.389482,-0.152415
6.161,-3.209378,-2.917788,-0.142204
6.181,-3.321125,-1.833871,-0.117376
6.201,-3.401246,-1.154436,-0.085411
6.221,-3.495817,-0.845391,-0.037639
6.241,-3.634944,-0.920305,0.035253
6.261,-3.831746,-1.524897,0.087605
6.281,-4.060481,-2.883979,0.046667
6.301,-4.207812,-5.635474,-0.114767
6.321,-4.400022,-9.941102,-0.240402
6.341,-4.575363,-14.4077,-0.270318
6.361,-4.575971,-17.54764,-0.257811
6.381,-4.383455,-18.66031,-0.232047
6.401,-4.124189,-18.36382,-0.205569
6.421,-3.845178,-17.45066,-0.187672
6.441,-3.503695,-16.28481,-0.176855
6.461,-3.048521,-15.05913,-0.173692
6.599,-2.629303,-13.41969,-0.102828
6.619,-2.244828,-12.05993,-0.046722
6.639,-1.85948,-11.16671,-0.007274
6.659,-1.352084,-10.94311,0.029082
6.679,-0.594851,-11.5741,0.057861
6.699,0.077566,-13.60865,0.003931
6.719,-0.013573,-16.38295,-0.081386
6.739,-0.721431,-18.29917,-0.121183
6.759,-1.084709,-18.57988,-0.123438
6.779,-1.082072,-18.09089,-0.105604
6.799,-1.127801,-17.16967,-0.068304
6.819,-1.248419,-16.03996,-0.011718
6.839,-1.363291,-14.87623,0.060753
6.859,-1.460144,-13.76277,0.138518
6.879,-1.573977,-12.61892,0.209005
6.899,-1.705131,-11.34278,0.266273
6.919,-1.851275,-9.876839,0.310071
6.939,-2.008339,-8.199516,0.335317
6.959,-2.159045,-6.37922,0.339909
6.979,-2.267969,-4.642704,0.341863
6.999,-2.352225,-3.457218,0.365701
7.019,-2.485993,-3.039555,0.41978
7.039,-2.70415,-3.439339,0.468299
7.059,-2.977301,-4.453156,0.48481
7.079,-3.196478,-6.123849,0.497498
7.099,-3.455446,-8.570719,0.527464
7.119,-3.82176,-11.06269,0.625941
7.139,-4.176916,-13.09315,0.779825
7.159,-4.351982,-14.49687,0.954001
7.179,-4.377944,-15.13614,1.101081
7.199,-4.30241,-15.18342,1.201939
7.219,-4.09524,-14.89056,1.264437
7.239,-3.731891,-14.48934,1.325158
7.259,-3.231797,-14.16057,1.371612
7.279,-2.685936,-13.86197,1.411301
7.299,-2.169033,-13.4528,1.461729
7.319,-1.670529,-12.87274,1.522441
7.339,-1.16256,-12.16396,1.579454
7.359,-0.647965,-11.40753,1.619067
7.379,-0.171355,-10.65679,1.648316
7.399,0.236141,-9.97633,1.678307
7.419,0.607797,-9.577,1.731258
7.439,0.979462,-9.673395,1.830193
7.459,1.224777,-10.37893,2.026787
7.479,1.111876,-11.66963,2.252683
7.499,0.574647,-12.85626,2.478971
7.519,-0.219687,-13.25243,2.696049
7.539,-0.942887,-13.07534,2.894387
7.559,-1.418718,-12.63701,3.101707
7.579,-1.745287,-12.07428,3.332037
7.599,-2.026242,-11.37544,3.529162
7.619,-2.310021,-10.48228,3.647779
7.639,-2.564234,-9.503034,3.723924
7.659,-2.702904,-8.837546,3.770228
7.679,-2.70685,-8.361414,3.798738
7.699,-2.678972,-8.006144,3.804701
7.719,-2.63675,-7.579058,3.802778
7.739,-2.571646,-7.080347,3.801787
7.759,-2.478408,-6.608661,3.811206
7.779,-2.395429,-6.297084,3.83177
7.799,-2.342337,-6.281068,3.851348
7.819,-2.296864,-6.476549,3.942499
7.839,-2.216806,-6.519147,4.130859
7.859,-2.227679,-6.54363,4.336858
7.879,-2.33245,-6.561852,4.547813
7.899,-2.419811,-7.126615,4.747938
7.919,-2.359853,-7.757351,4.936615
7.939,-2.34147,-7.937988,5.19475
7.959,-2.377498,-7.883029,5.440043
7.979,-2.311509,-7.829668,5.579618
7.999,-2.194847,-7.819677,5.622336
8.019,-2.081805,-7.787296,5.631873
8.039,-1.950711,-7.701013,5.651387
8.059,-1.829877,-7.491205,5.690863
8.079,-1.705969,-7.288335,5.719152
8.099,-1.619954,-7.165242,5.735888
8.119,-1.519133,-7.064814,5.736393
8.139,-1.430573,-6.930943,5.737725
8.159,-1.341586,-6.782261,5.744877
8.179,-1.273979,-6.629554,5.765136
8.199,-1.188278,-6.503334,5.793937
8.219,-1.103212,-6.473037,5.831252
8.239,-1.038381,-6.513012,5.892532
8.259,-0.999908,-6.635705,5.992316
8.279,-0.992981,-6.871998,6.105412
8.299,-1.014629,-7.132423,6.206757
8.319,-1.045714,-7.356172,6.299954
8.339,-1.06416,-7.511528,6.385606
8.359,-1.058492,-7.603715,6.454832
8.379,-1.061294,-7.634212,6.509003
8.399,-1.037713,-7.631723,6.549626
8.419,-1.004406,-7.583931,6.582682
8.439,-0.947668,-7.528575,6.597174
8.459,-0.957124,-7.459364,6.574854
8.479,-0.948491,-7.404463,6.524829
8.499,-0.930769,-7.324596,6.478836
8.519,-0.911502,-7.202135,6.471412
8.539,-0.900117,-7.14536,6.489435
8.559,-0.894918,-7.13659,6.502077
8.579,-0.887127,-7.166271,6.504756
