gyro_time_list,gyro_x_list,gyro_y_list,gyro_z_list
0.423,-0.377711,-0.506145,1.354562
0.443,-0.364054,-0.496087,1.395131
0.463,-0.321419,-0.481625,1.429538
0.483,-0.248819,-0.467553,1.458059
0.503,-0.161172,-0.451919,1.478643
0.523,-0.071684,-0.433773,1.493599
0.543,0.008883,-0.413113,1.503934
0.563,0.072346,-0.389015,1.509075
0.583,0.119298,-0.361699,1.508048
0.603,0.155505,-0.332547,1.500024
0.623,0.187651,-0.303245,1.484367
0.643,0.220421,-0.274165,1.460924
0.663,0.254213,-0.245495,1.429356
0.683,0.286108,-0.217483,1.389477
0.703,0.311843,-0.190487,1.342288
0.723,0.327772,-0.16447,1.287998
0.743,0.331332,-0.14022,1.227855
0.763,0.322889,-0.118439,1.16392
0.783,0.306058,-0.09935,1.097864
0.803,0.286448,-0.083141,1.031572
0.823,0.267806,-0.069576,0.966018
0.843,0.251781,-0.05807,0.902555
0.863,0.238538,-0.048579,0.841364
0.883,0.227488,-0.040574,0.782548
0.903,0.217331,-0.033525,0.725317
0.923,0.2084,-0.027416,0.669707
0.943,0.201091,-0.021623,0.615583
0.963,0.196258,-0.016233,0.563163
0.983,0.194661,-0.011527,0.513038
1.003,0.195763,-0.007314,0.465765
1.023,0.198756,-0.003777,0.421754
1.043,0.20317,-0.001419,0.381037
1.063,0.208692,-0.000323,0.343464
1.083,0.215097,-0.000516,0.308541
1.103,0.221836,-0.002002,0.275491
1.123,0.227513,-0.004605,0.243995
1.143,0.231193,-0.008195,0.213436
1.163,0.232307,-0.012796,0.183735
1.183,0.231109,-0.018256,0.155058
1.203,0.227552,-0.024723,0.127741
1.223,0.221308,-0.032225,0.101437
1.243,0.212676,-0.040244,0.076598
1.263,0.20225,-0.048323,0.053724
1.283,0.191315,-0.056253,0.03389
1.303,0.18029,-0.063015,0.020912
1.323,0.168736,-0.07192,0.012348
1.343,0.156165,-0.083408,0.005537
1.363,0.141645,-0.09257,-0.001558
1.383,0.125256,-0.096242,-0.011028
1.403,0.10833,-0.093628,-0.01827
1.423,0.094606,-0.087555,-0.021959
1.443,0.088876,-0.080679,-0.020775
1.463,0.091297,-0.074179,-0.013943
1.483,0.097493,-0.068213,-0.00371
1.503,0.103813,-0.062392,0.008878
1.523,0.108939,-0.055985,0.022948
1.543,0.113449,-0.048958,0.037938
1.563,0.119246,-0.042545,0.052755
1.583,0.127873,-0.038053,0.065989
1.603,0.139793,-0.035367,0.076354
1.623,0.15366,-0.033567,0.083396
1.643,0.166072,-0.032395,0.086902
1.663,0.174086,-0.032019,0.086757
1.683,0.176566,-0.032186,0.083275
1.703,0.17396,-0.032703,0.076808
1.723,0.168038,-0.033679,0.06801
1.743,0.160014,-0.03493,0.057236
1.763,0.15165,-0.036045,0.044943
1.783,0.144551,-0.036867,0.031593
1.803,0.139219,-0.036997,0.017742
1.823,0.135096,-0.035683,0.004808
1.843,0.13198,-0.033363,-0.006513
1.863,0.130589,-0.030948,-0.015521
1.885,0.132884,-0.027559,-0.02059
1.905,0.140328,-0.023371,-0.021602
1.925,0.154763,-0.019821,-0.017845
1.945,0.176429,-0.018078,-0.009137
1.965,0.204534,-0.018473,0.003921
1.985,0.238119,-0.02104,0.020314
2.005,0.275158,-0.026141,0.038189
2.025,0.311632,-0.033115,0.055112
2.045,0.342604,-0.040856,0.069506
2.065,0.364259,-0.048936,0.079712
2.085,0.374874,-0.057475,0.085009
2.105,0.375286,-0.066266,0.085722
2.125,0.370032,-0.075266,0.082656
2.145,0.363626,-0.085124,0.077133
2.165,0.359315,-0.096248,0.070207
2.185,0.359083,-0.108303,0.061702
2.205,0.361428,-0.121019,0.052311
2.225,0.363484,-0.134628,0.042546
2.245,0.363923,-0.14947,0.032976
2.265,0.361922,-0.165714,0.023582
2.285,0.356358,-0.182603,0.014067
2.305,0.345925,-0.2002,0.004306
2.325,0.330371,-0.217874,-0.005968
2.345,0.310697,-0.234747,-0.016871
2.365,0.287993,-0.250611,-0.02867
2.385,0.263499,-0.265554,-0.041884
2.405,0.239179,-0.278775,-0.057072
2.527,0.24122,-0.282081,-0.086973
2.547,0.253375,-0.285009,-0.118621
2.567,0.278953,-0.29077,-0.149958
2.587,0.320227,-0.3007,-0.178608
2.607,0.375898,-0.315917,-0.202053
2.627,0.442067,-0.336285,-0.217689
2.647,0.512847,-0.359985,-0.221805
2.667,0.584634,-0.386789,-0.212273
2.687,0.65741,-0.417827,-0.189351
2.707,0.727391,-0.453645,-0.153331
2.727,0.78075,-0.493722,-0.105701
2.747,0.801485,-0.540601,-0.048044
2.767,0.784441,-0.595738,0.013076
2.787,0.715856,-0.643187,0.083371
2.807,0.571586,-0.649069,0.184241
2.827,0.391342,-0.636579,0.311792
2.847,0.192189,-0.625992,0.450548
2.867,-0.023755,-0.633489,0.599376
2.887,-0.003416,-0.650072,0.74014
2.907,0.218451,-0.683616,0.830734
2.927,0.450893,-0.71757,0.802792
2.947,0.689645,-0.7476,0.728199
2.967,0.930193,-0.78951,0.667075
2.987,1.065948,-0.818068,0.609083
3.007,0.985444,-0.831342,0.527095
3.027,0.825225,-0.840562,0.433704
3.047,0.643348,-0.854232,0.307435
3.067,0.471035,-0.863408,0.156371
3.087,0.304639,-0.848562,0.006593
3.107,0.185759,-0.802467,-0.103206
3.127,0.178722,-0.705533,-0.140257
3.147,0.308736,-0.562899,-0.11523
3.167,0.570922,-0.40152,-0.083694
3.187,0.834421,-0.221804,-0.137086
3.207,1.094002,-0.055348,-0.230029
3.227,1.345101,0.019131,-0.39034
3.247,1.584107,-0.015425,-0.505286
3.267,1.487675,-0.110859,-0.513525
3.287,1.136603,-0.226221,-0.529069
3.307,0.740586,-0.354824,-0.558084
3.327,0.285565,-0.479862,-0.605266
3.347,-0.169281,-0.596555,-0.660569
3.367,-0.603433,-0.702203,-0.739034
3.387,-0.936547,-0.776844,-0.840871
3.407,-1.038998,-0.800794,-0.979398
3.427,-0.777249,-0.79512,-1.147855
3.447,-0.274595,-0.752978,-1.30513
3.467,0.215113,-0.685127,-1.444255
3.487,0.67553,-0.625567,-1.560879
3.507,1.095899,-0.595814,-1.633115
3.527,1.471117,-0.59792,-1.665377
3.547,1.80063,-0.625544,-1.686713
3.567,1.877999,-0.664363,-1.709878
3.587,1.551565,-0.698517,-1.723365
3.607,1.0332,-0.719569,-1.734086
3.627,0.440492,-0.720405,-1.743867
3.647,-0.127303,-0.698396,-1.748623
3.667,-0.62468,-0.655335,-1.74642
3.687,-0.951663,-0.595824,-1.738064
3.707,-1.058911,-0.524591,-1.719462
3.727,-0.983395,-0.447114,-1.682927
3.747,-0.811247,-0.369047,-1.630672
3.767,-0.606149,-0.291069,-1.574631
3.787,-0.398101,-0.212142,-1.518749
3.807,-0.209759,-0.130954,-1.461822
3.827,-0.049206,-0.048299,-1.403842
3.847,0.089922,0.020726,-1.342605
3.867,0.223375,0.071762,-1.274426
3.887,0.339321,0.100596,-1.211274
3.907,0.408974,0.116104,-1.161731
3.927,0.416576,0.127606,-1.119275
3.947,0.370156,0.132707,-1.073009
3.967,0.282955,0.132536,-1.027078
3.987,0.170475,0.12948,-0.984211
4.007,0.052999,0.12434,-0.943644
4.027,-0.053062,0.117597,-0.906732
4.047,-0.138218,0.109778,-0.87334
4.067,-0.196558,0.101545,-0.841927
4.087,-0.227272,0.093724,-0.811777
4.107,-0.235819,0.086618,-0.783047
4.127,-0.231875,0.080369,-0.755897
4.147,-0.222981,0.075082,-0.731294
4.167,-0.211672,0.07121,-0.709155
4.187,-0.197532,0.069163,-0.688577
4.207,-0.181133,0.068655,-0.669256
4.227,-0.164051,0.06926,-0.651006
4.247,-0.14664,0.070633,-0.633515
4.267,-0.12864,0.072569,-0.616489
4.287,-0.111225,0.075002,-0.599969
4.307,-0.095612,0.077768,-0.583892
4.327,-0.082263,0.080632,-0.568005
4.347,-0.071433,0.083213,-0.552244
4.367,-0.063261,0.085177,-0.536619
4.387,-0.057546,0.086395,-0.520886
4.407,-0.053764,0.08692,-0.505015
4.427,-0.051748,0.086699,-0.489221
4.447,-0.051636,0.085655,-0.473905
4.467,-0.05338,0.084109,-0.459319
4.487,-0.055855,0.082299,-0.445345
4.507,-0.058084,0.080515,-0.432147
4.726,-0.058244,0.078386,-0.419943
4.746,-0.058247,0.076273,-0.408159
4.766,-0.05754,0.07425,-0.396723
4.786,-0.05654,0.072356,-0.385708
4.806,-0.055922,0.070659,-0.375132
4.826,-0.055512,0.06917,-0.36478
4.846,-0.055174,0.067832,-0.354683
4.866,-0.055195,0.066479,-0.345031
4.886,-0.055437,0.065143,-0.335842
4.906,-0.055586,0.063913,-0.3271
4.926,-0.055716,0.062854,-0.318695
4.946,-0.055707,0.062021,-0.310651
4.966,-0.055593,0.061444,-0.30292
4.986,-0.055531,0.061019,-0.295547
5.006,-0.055558,0.060736,-0.288535
5.026,-0.055438,0.060559,-0.281872
5.046,-0.054957,0.060424,-0.275479
5.066,-0.054104,0.060198,-0.26938
5.086,-0.053266,0.059842,-0.263555
5.106,-0.052844,0.059363,-0.258008
5.126,-0.05275,0.058753,-0.252703
5.146,-0.053294,0.058264,-0.247789
5.166,-0.053714,0.057637,-0.242852
5.186,-0.05309,0.057077,-0.238179
5.206,-0.052653,0.056633,-0.233677
5.226,-0.052668,0.056245,-0.229315
5.246,-0.052802,0.055928,-0.22523
5.266,-0.052754,0.055563,-0.221075
5.286,-0.052731,0.05517,-0.21705
5.306,-0.052992,0.054778,-0.21312
5.326,-0.053206,0.054432,-0.209376
5.346,-0.053113,0.054109,-0.205792
5.366,-0.052742,0.053783,-0.20223
5.386,-0.052596,0.053379,-0.198804
5.406,-0.052821,0.052925,-0.195503
5.426,-0.053063,0.052471,-0.192318
5.446,-0.052956,0.052064,-0.189196
5.466,-0.052655,0.051745,-0.186158
5.486,-0.052368,0.051486,-0.183221
5.506,-0.05212,0.051235,-0.180331
5.526,-0.051898,0.050965,-0.177435
5.546,-0.051774,0.05061,-0.174608
5.566,-0.051847,0.050201,-0.171899
5.586,-0.051973,0.049807,-0.169264
5.606,-0.052081,0.049487,-0.166812
5.626,-0.051821,0.049215,-0.164334
5.646,-0.051479,0.049033,-0.162084
5.666,-0.051371,0.048859,-0.159755
5.686,-0.051399,0.048703,-0.157559
5.706,-0.051342,0.048535,-0.155334
5.726,-0.051144,0.048369,-0.153194
5.746,-0.050966,0.048187,-0.151077
5.766,-0.050859,0.047973,-0.149019
5.786,-0.050824,0.047756,-0.146989
5.806,-0.050846,0.047573,-0.145018
5.826,-0.050867,0.047439,-0.143126
5.846,-0.050895,0.047381,-0.141311
5.866,-0.050933,0.047341,-0.139598
5.887,-0.050619,0.047287,-0.137867
5.907,-0.050383,0.047214,-0.136224
5.927,-0.050372,0.047115,-0.134588
5.947,-0.050353,0.046996,-0.133004
5.967,-0.050166,0.046819,-0.131415
5.987,-0.04993,0.046594,-0.129871
6.007,-0.049785,0.046327,-0.128325
6.027,-0.049593,0.046,-0.12675
6.047,-0.049379,0.045717,-0.12526
6.067,-0.049446,0.045378,-0.12385
6.087,-0.049834,0.045031,-0.12248
6.107,-0.050087,0.044773,-0.121074
6.127,-0.049876,0.044554,-0.119658
6.147,-0.049535,0.044334,-0.118265
6.167,-0.049479,0.044097,-0.116867
6.187,-0.049625,0.04383,-0.115451
6.207,-0.049733,0.043564,-0.114066
6.227,-0.049628,0.043304,-0.112711
6.247,-0.049446,0.043106,-0.111394
6.267,-0.049302,0.042901,-0.110118
6.287,-0.048951,0.042652,-0.108866
6.307,-0.048698,0.042384,-0.107653
6.327,-0.048556,0.042055,-0.106432
6.347,-0.048492,0.04167,-0.105279
6.367,-0.048518,0.041225,-0.104164
6.387,-0.048662,0.0408,-0.103112
6.407,-0.04878,0.040428,-0.102057
6.427,-0.048744,0.040122,-0.101026
6.447,-0.048718,0.039848,-0.100002
6.467,-0.048859,0.03958,-0.098992
6.487,-0.049009,0.039313,-0.098007
6.507,-0.049076,0.03909,-0.09706
6.527,-0.048954,0.038857,-0.096077
6.547,-0.048644,0.0386,-0.095112
6.567,-0.048582,0.038335,-0.094163
6.587,-0.048663,0.03804,-0.09322
6.607,-0.048663,0.037721,-0.092313
6.627,-0.048617,0.037362,-0.091404
6.647,-0.048631,0.036961,-0.090496
6.667,-0.048644,0.036431,-0.089521
6.687,-0.048667,0.035657,-0.08848
6.707,-0.049061,0.03469,-0.087453
7.187,-0.051993,0.033008,-0.080394
7.207,-0.054854,0.031467,-0.072074
7.227,-0.05727,0.030269,-0.063164
7.247,-0.058381,0.029634,-0.053692
7.267,-0.058149,0.030121,-0.043984
7.287,-0.058579,0.031573,-0.033938
7.307,-0.062146,0.032843,-0.025183
7.327,-0.064991,0.033076,-0.016942
7.347,-0.067889,0.032816,-0.009936
7.367,-0.07465,0.032077,-0.004778
7.387,-0.083538,0.03068,-0.001066
7.407,-0.09219,0.028477,0.001633
7.427,-0.099238,0.025782,0.0036
7.447,-0.103678,0.023105,0.004831
7.467,-0.105569,0.020769,0.005418
7.487,-0.105561,0.019098,0.005595
7.507,-0.104278,0.018296,0.005905
7.527,-0.102689,0.018271,0.006178
7.547,-0.101745,0.018728,0.006199
7.567,-0.101814,0.019284,0.006042
7.587,-0.103228,0.019628,0.005601
7.607,-0.105798,0.019785,0.004755
7.627,-0.108469,0.019846,0.003798
7.647,-0.110027,0.019823,0.002806
7.667,-0.109678,0.019722,0.001924
7.687,-0.108051,0.019513,0.001068
7.707,-0.106634,0.019181,0.000309
7.727,-0.106282,0.019034,-0.000332
7.747,-0.106324,0.019283,-0.00126
7.767,-0.106699,0.019222,-0.00153
7.787,-0.104048,0.017262,-0.002065
7.807,-0.102175,0.018217,-0.004004
7.827,-0.100403,0.01928,-0.005363
7.847,-0.0984,0.020244,-0.006172
7.867,-0.096891,0.020981,-0.007124
7.888,-0.096964,0.021056,-0.008687
7.908,-0.097664,0.020603,-0.010359
7.928,-0.09715,0.020073,-0.011508
7.948,-0.092634,0.020368,-0.011994
7.968,-0.086365,0.020432,-0.014842
7.988,-0.079208,0.020249,-0.017799
8.008,-0.079032,0.021756,-0.017985
8.028,-0.079132,0.022131,-0.018092
8.048,-0.077515,0.021689,-0.018144
8.068,-0.075434,0.021667,-0.018417
8.088,-0.073409,0.021965,-0.018452
8.108,-0.071992,0.022722,-0.018517
8.128,-0.070781,0.023341,-0.018553
8.148,-0.069082,0.023541,-0.018365
8.168,-0.067015,0.023614,-0.01776
8.188,-0.065243,0.023682,-0.017219
8.208,-0.063743,0.023961,-0.016743
8.228,-0.062222,0.024331,-0.016373
8.248,-0.060741,0.024797,-0.016035
8.268,-0.059126,0.025284,-0.01579
8.288,-0.057766,0.025726,-0.015958
8.308,-0.057056,0.02614,-0.01635
8.328,-0.056627,0.026783,-0.016636
8.348,-0.056309,0.027621,-0.016956
8.368,-0.055804,0.02835,-0.017377
8.388,-0.055006,0.028855,-0.018145
8.408,-0.053686,0.029215,-0.018954
8.428,-0.05189,0.029433,-0.019181
8.448,-0.050996,0.028907,-0.019903
8.468,-0.050264,0.028617,-0.019921
8.488,-0.051025,0.02891,-0.019861
8.508,-0.054068,0.029215,-0.02037
8.528,-0.057234,0.029288,-0.020604
8.548,-0.060454,0.029898,-0.019796
8.568,-0.064113,0.031221,-0.01819
8.588,-0.068868,0.032867,-0.016546
8.608,-0.074817,0.034969,-0.01469
8.628,-0.081835,0.037012,-0.012935
8.648,-0.088609,0.038751,-0.011379
8.668,-0.093992,0.040147,-0.009997
8.688,-0.097373,0.041163,-0.008623
8.708,-0.098596,0.041511,-0.00732
8.728,-0.098212,0.041589,-0.006223
8.748,-0.097117,0.041558,-0.005692
8.768,-0.095899,0.041634,-0.006235
8.788,-0.094845,0.041624,-0.006473
8.808,-0.094034,0.041462,-0.006335
8.828,-0.093351,0.041274,-0.006264
8.848,-0.092199,0.041133,-0.006459
8.868,-0.090861,0.041227,-0.006587
8.888,-0.089849,0.041442,-0.00663
8.908,-0.089445,0.041848,-0.006564
8.928,-0.089487,0.04258,-0.006607
8.948,-0.089154,0.043252,-0.006477
8.968,-0.088284,0.043411,-0.006121
8.988,-0.087084,0.043316,-0.005545
9.008,-0.086111,0.043247,-0.004998
9.028,-0.085639,0.043237,-0.004816
9.048,-0.085115,0.043199,-0.004543
9.068,-0.08459,0.043246,-0.004188
9.088,-0.083834,0.0433,-0.003784
9.108,-0.083039,0.04331,-0.003417
9.128,-0.082705,0.043332,-0.00334
9.148,-0.082307,0.043295,-0.003563
9.168,-0.081477,0.043131,-0.003759
