accel_time_list,accel_x_list,accel_y_list,accel_z_list
0.415000,-2.844312,-11.920731,6.957550
0.435000,-2.591723,-12.242750,6.754043
0.455000,-2.740275,-12.412288,6.549173
0.475000,-3.076540,-12.343373,6.294003
0.495000,-3.356824,-12.101303,5.970223
0.515000,-3.555332,-11.756902,5.553161
0.535000,-3.695578,-11.307849,5.025996
0.555000,-3.758125,-10.752475,4.466799
0.575000,-3.718463,-10.113539,3.932616
0.595000,-3.582125,-9.437010,3.430075
0.615000,-3.419886,-8.769297,3.005110
0.635000,-3.313402,-8.167374,2.702691
0.655000,-3.314007,-7.693954,2.488729
0.675000,-3.365765,-7.336907,2.300946
0.695000,-3.443154,-7.163649,2.159072
0.715000,-3.579509,-7.224131,2.073774
0.735000,-3.838637,-7.583049,2.059507
0.755000,-4.191545,-8.224020,2.081128
0.775000,-4.468549,-8.925331,2.130986
0.795000,-4.603979,-9.475352,2.202411
0.815000,-4.639247,-9.875439,2.288481
0.835000,-4.576750,-10.159634,2.369857
0.855000,-4.432892,-10.317376,2.435776
0.875000,-4.231127,-10.339412,2.482916
0.895000,-3.983990,-10.238079,2.507976
0.915000,-3.693655,-10.045393,2.533394
0.935000,-3.376813,-9.799663,2.567832
0.955000,-3.080822,-9.549589,2.614706
0.975000,-2.853073,-9.360982,2.664606
0.995000,-2.696018,-9.260003,2.710013
1.015000,-2.572689,-9.221164,2.757656
1.035000,-2.443243,-9.198885,2.815764
1.055000,-2.305878,-9.193669,2.890008
1.075000,-2.198566,-9.288948,2.980635
1.095000,-2.177922,-9.534618,3.064102
1.115000,-2.254152,-9.895581,3.118231
1.135000,-2.391432,-10.245269,3.157588
1.155000,-2.554999,-10.477626,3.189620
1.175000,-2.746982,-10.595341,3.201505
1.195000,-2.953700,-10.618123,3.187882
1.215000,-3.139767,-10.545205,3.155008
1.235000,-3.279687,-10.365991,3.111137
1.255000,-3.376776,-10.089120,3.071713
1.275000,-3.430918,-9.729590,3.033586
1.295000,-3.457351,-9.308174,2.995456
1.315000,-3.478935,-8.861322,2.961879
1.337000,-3.493426,-8.430399,2.922725
1.357000,-3.494055,-8.059518,2.881909
1.377000,-3.498604,-7.769143,2.850581
1.397000,-3.536278,-7.573457,2.853188
1.417000,-3.611945,-7.505227,2.889175
1.437000,-3.710557,-7.595255,2.944687
1.457000,-3.824316,-7.830790,2.997618
1.477000,-3.925889,-8.122084,3.054634
1.497000,-4.005527,-8.395915,3.123193
1.517000,-4.065640,-8.659904,3.196982
1.537000,-4.071721,-8.890575,3.264793
1.557000,-4.020945,-9.050956,3.321594
1.577000,-3.933891,-9.125888,3.369879
1.597000,-3.833062,-9.139884,3.416694
1.617000,-3.740699,-9.154887,3.468567
1.637000,-3.666839,-9.176352,3.516251
1.657000,-3.596133,-9.194490,3.552973
1.677000,-3.510227,-9.182512,3.585562
1.697000,-3.407256,-9.117932,3.613686
1.717000,-3.294732,-9.012598,3.641271
1.737000,-3.181544,-8.893679,3.666526
1.757000,-3.074766,-8.795730,3.690015
1.777000,-2.991265,-8.773833,3.721812
1.797000,-2.967942,-8.844116,3.754585
1.817000,-3.019602,-8.964148,3.782542
1.837000,-3.139987,-9.090800,3.807776
1.857000,-3.308767,-9.198825,3.830111
1.877000,-3.481445,-9.272894,3.838998
1.897000,-3.615532,-9.285891,3.837327
1.917000,-3.694939,-9.227468,3.831463
1.937000,-3.726562,-9.109488,3.819403
1.957000,-3.721962,-8.954941,3.805117
1.977000,-3.692410,-8.783415,3.784237
1.997000,-3.645848,-8.608454,3.756490
2.017000,-3.586065,-8.429748,3.724604
2.037000,-3.515508,-8.246862,3.693581
2.057000,-3.447805,-8.072747,3.667521
2.077000,-3.400670,-7.929760,3.650902
2.097000,-3.375366,-7.851933,3.653140
2.117000,-3.363625,-7.864933,3.670403
2.137000,-3.378968,-7.962358,3.696204
2.157000,-3.439920,-8.107459,3.726887
2.177000,-3.533122,-8.233470,3.771394
2.197000,-3.629576,-8.340537,3.823666
2.217000,-3.710749,-8.475027,3.862993
2.237000,-3.757592,-8.632826,3.885858
2.257000,-3.764804,-8.763137,3.909228
2.277000,-3.743911,-8.830395,3.938118
2.297000,-3.699662,-8.831612,3.962684
2.317000,-3.620634,-8.776361,3.976053
2.337000,-3.500139,-8.677548,3.986623
2.357000,-3.357255,-8.553525,3.998951
2.377000,-3.221665,-8.427549,4.010866
2.397000,-3.096344,-8.335727,4.021469
2.443000,-2.996063,-8.498014,4.042626
2.463000,-2.950211,-8.745710,4.057005
2.483000,-2.968926,-9.011765,4.056518
2.503000,-3.005676,-9.212440,4.052803
2.523000,-3.036715,-9.353463,4.053837
2.543000,-3.072535,-9.489835,4.052862
2.563000,-3.133379,-9.632259,4.040295
2.583000,-3.222373,-9.735722,4.011211
2.603000,-3.304022,-9.737018,3.968578
2.623000,-3.344641,-9.620072,3.921472
2.643000,-3.350713,-9.402801,3.874506
2.663000,-3.342057,-9.102406,3.825145
2.683000,-3.324210,-8.739271,3.768321
2.703000,-3.291616,-8.338889,3.709525
2.723000,-3.252213,-7.944894,3.657039
2.743000,-3.230759,-7.595859,3.615975
2.763000,-3.241248,-7.332474,3.582852
2.783000,-3.262504,-7.196502,3.562083
2.803000,-3.281212,-7.240973,3.560598
2.823000,-3.304773,-7.470898,3.569055
2.843000,-3.342963,-7.795817,3.573159
2.863000,-3.389628,-8.135549,3.591775
2.883000,-3.436423,-8.504910,3.626544
2.903000,-3.476778,-8.950973,3.650212
2.923000,-3.478528,-9.484969,3.665712
2.943000,-3.433671,-9.972054,3.678292
2.963000,-3.363104,-10.282287,3.686477
2.983000,-3.281425,-10.411247,3.686325
3.003000,-3.186789,-10.396608,3.678571
3.023000,-3.079489,-10.293907,3.665526
3.043000,-2.972438,-10.135624,3.648585
3.063000,-2.878386,-9.954353,3.629293
3.083000,-2.801004,-9.790615,3.610773
3.103000,-2.733660,-9.672084,3.589815
3.123000,-2.677680,-9.632332,3.565440
3.143000,-2.637453,-9.722368,3.536537
3.163000,-2.622753,-9.948915,3.499604
3.183000,-2.643698,-10.257981,3.448940
3.203000,-2.691027,-10.520662,3.382583
3.223000,-2.738416,-10.657570,3.310043
3.243000,-2.776748,-10.680880,3.237816
3.263000,-2.814375,-10.642870,3.158885
3.283000,-2.847927,-10.564698,3.072213
3.303000,-2.863990,-10.426758,2.986075
3.323000,-2.864988,-10.222114,2.910939
3.343000,-2.857712,-9.963778,2.849534
3.363000,-2.851279,-9.674710,2.803209
3.383000,-2.847749,-9.378542,2.771536
3.403000,-2.846175,-9.095706,2.752360
3.423000,-2.845680,-8.838747,2.743872
3.443000,-2.854780,-8.623046,2.755241
3.463000,-2.880537,-8.486223,2.787924
3.483000,-2.919113,-8.484054,2.829441
3.503000,-2.962249,-8.648459,2.865567
3.523000,-3.011436,-8.932642,2.904577
3.543000,-3.059040,-9.207117,2.957558
3.563000,-3.102413,-9.438435,3.010498
3.583000,-3.136764,-9.683105,3.039305
3.603000,-3.141375,-9.885133,3.041701
3.623000,-3.113724,-9.966925,3.031336
3.643000,-3.063226,-9.925990,3.014492
3.663000,-2.999343,-9.809899,2.990837
3.683000,-2.932843,-9.664224,2.957582
3.703000,-2.871596,-9.525126,2.915754
3.723000,-2.820448,-9.410619,2.867486
3.743000,-2.776958,-9.311505,2.818039
3.763000,-2.738565,-9.244462,2.772190
3.783000,-2.707952,-9.230641,2.727683
3.803000,-2.686177,-9.331246,2.685645
3.823000,-2.685132,-9.562079,2.633939
3.843000,-2.718402,-9.840319,2.570097
3.863000,-2.776823,-10.006587,2.513958
3.883000,-2.848422,-10.053298,2.475000
3.903000,-2.922490,-10.050413,2.442319
3.923000,-2.990356,-10.024162,2.400960
3.943000,-3.040373,-9.953260,2.356125
3.963000,-3.066644,-9.806971,2.314682
3.983000,-3.078012,-9.588212,2.282975
4.003000,-3.085858,-9.314642,2.263990
4.023000,-3.097501,-9.031354,2.254146
4.043000,-3.112766,-8.779893,2.249480
4.063000,-3.132140,-8.584375,2.254626
4.083000,-3.154821,-8.440564,2.277850
4.103000,-3.180106,-8.328370,2.319626
4.123000,-3.208230,-8.286532,2.377341
4.143000,-3.238778,-8.368177,2.441253
4.163000,-3.270366,-8.558170,2.500533
4.183000,-3.288461,-8.754717,2.561730
4.203000,-3.298043,-8.929882,2.629811
4.223000,-3.312568,-9.139056,2.706312
4.243000,-3.339641,-9.395368,2.786488
4.263000,-3.387150,-9.642637,2.864109
4.283000,-3.440727,-9.803601,2.932604
4.303000,-3.480907,-9.848971,2.987721
4.323000,-3.494260,-9.795881,3.028224
4.343000,-3.483653,-9.670862,3.055985
4.363000,-3.460732,-9.511589,3.074256
4.383000,-3.433364,-9.350461,3.081808
4.403000,-3.404810,-9.201585,3.077780
4.423000,-3.378190,-9.059879,3.061285
4.464000,-3.358942,-8.906348,3.038316
4.484000,-3.345432,-8.779093,3.015390
4.504000,-3.343982,-8.695471,2.982171
4.524000,-3.361114,-8.658564,2.941194
4.544000,-3.399122,-8.666642,2.904275
4.564000,-3.466846,-8.723562,2.880646
4.584000,-3.565059,-8.796546,2.869115
4.604000,-3.658172,-8.800657,2.853156
4.624000,-3.724421,-8.767996,2.848406
4.644000,-3.759194,-8.724572,2.855515
4.664000,-3.772122,-8.684245,2.868223
4.684000,-3.769086,-8.638889,2.886178
4.704000,-3.752604,-8.586977,2.903280
4.724000,-3.720791,-8.530858,2.915037
4.744000,-3.674321,-8.477165,2.924426
4.764000,-3.618127,-8.435762,2.939444
4.784000,-3.563608,-8.428846,2.958506
4.804000,-3.528110,-8.478103,2.985562
4.824000,-3.510621,-8.592463,3.013113
4.844000,-3.526935,-8.766029,3.048452
4.864000,-3.594464,-8.996208,3.107300
4.884000,-3.715408,-9.220885,3.178005
4.904000,-3.843782,-9.343536,3.240262
4.924000,-3.929899,-9.364958,3.285637
4.944000,-3.977940,-9.329047,3.315551
4.964000,-4.003932,-9.269324,3.338474
4.984000,-4.024928,-9.198171,3.354737
5.004000,-4.051774,-9.108037,3.356929
5.024000,-4.065950,-8.992797,3.349114
5.044000,-4.059155,-8.834785,3.337112
5.064000,-4.035546,-8.619642,3.327955
5.084000,-3.997704,-8.345973,3.319799
5.104000,-3.952079,-8.013590,3.311765
5.124000,-3.906240,-7.655202,3.301116
5.144000,-3.876508,-7.328321,3.294368
5.164000,-3.844572,-7.101210,3.298613
5.184000,-3.820251,-7.034600,3.303564
5.204000,-3.813038,-7.139011,3.301802
5.224000,-3.855569,-7.497771,3.311594
5.244000,-3.923489,-7.980878,3.314041
5.264000,-3.988793,-8.468763,3.316566
5.284000,-4.025921,-8.918388,3.320544
5.304000,-4.044192,-9.310006,3.326837
5.324000,-4.045525,-9.569792,3.337439
5.344000,-4.026597,-9.668058,3.343322
5.364000,-3.993026,-9.658945,3.342629
5.384000,-3.948673,-9.584776,3.339528
5.404000,-3.899830,-9.457179,3.335746
5.424000,-3.864827,-9.295117,3.338897
5.444000,-3.861326,-9.129625,3.352617
5.464000,-3.882893,-8.962057,3.365615
5.484000,-3.918713,-8.798018,3.380220
5.504000,-3.970563,-8.669172,3.398597
5.524000,-4.051906,-8.587097,3.420568
5.544000,-4.166047,-8.512068,3.444036
5.564000,-4.297949,-8.413830,3.465643
5.584000,-4.434367,-8.305765,3.483881
5.604000,-4.558762,-8.199903,3.504453
5.624000,-4.641347,-8.088241,3.532542
5.644000,-4.681967,-7.982912,3.567900
5.664000,-4.687952,-7.892858,3.604143
5.684000,-4.662426,-7.812843,3.635265
5.704000,-4.605765,-7.710702,3.659878
5.724000,-4.518866,-7.574628,3.680167
5.744000,-4.401846,-7.427286,3.696578
5.764000,-4.255975,-7.307686,3.705324
5.784000,-4.086113,-7.246612,3.709672
5.804000,-3.906558,-7.263693,3.714980
5.824000,-3.733246,-7.367141,3.728703
5.844000,-3.582938,-7.591154,3.755520
5.864000,-3.475261,-7.954792,3.783792
5.884000,-3.440529,-8.438575,3.813718
5.904000,-3.517310,-9.000906,3.851831
5.924000,-3.658168,-9.462873,3.884891
5.944000,-3.781744,-9.759102,3.907059
5.964000,-3.855160,-9.938234,3.906778
5.984000,-3.891879,-10.023548,3.885284
6.004000,-3.906934,-9.979999,3.850095
6.024000,-3.910223,-9.805220,3.803035
6.044000,-3.909289,-9.518667,3.744880
6.064000,-3.902428,-9.146917,3.680206
6.084000,-3.879393,-8.726999,3.611926
6.104000,-3.837261,-8.280785,3.541960
6.124000,-3.782056,-7.829586,3.478004
6.144000,-3.723392,-7.399871,3.425675
6.164000,-3.672048,-7.064099,3.397346
6.184000,-3.633156,-6.901445,3.407424
6.204000,-3.651160,-7.002219,3.465335
6.224000,-3.774185,-7.404134,3.542022
6.244000,-3.964762,-7.917315,3.626732
6.264000,-4.145983,-8.304175,3.730815
6.284000,-4.292413,-8.488954,3.846872
6.304000,-4.405532,-8.521905,3.959606
6.324000,-4.464828,-8.425195,4.048042
6.344000,-4.475085,-8.229648,4.112231
6.364000,-4.461587,-8.001760,4.170471
6.384000,-4.424958,-7.776932,4.221666
6.404000,-4.363106,-7.554421,4.262430
6.424000,-4.343699,-7.061515,4.299568
6.444000,-4.233409,-6.886509,4.323206
