gyro_time_list,gyro_x_list,gyro_y_list,gyro_z_list
0.415000,-1.841922,-2.564835,0.483230
0.435000,-1.631083,-2.548181,0.460247
0.455000,-1.444943,-2.508185,0.430887
0.475000,-1.303243,-2.465721,0.441102
0.495000,-1.210674,-2.429881,0.486067
0.515000,-1.163830,-2.398120,0.547071
0.535000,-1.142720,-2.371311,0.622266
0.555000,-1.141390,-2.344327,0.699648
0.575000,-1.155827,-2.316117,0.769785
0.595000,-1.171667,-2.279209,0.840506
0.615000,-1.183716,-2.231593,0.912610
0.635000,-1.200384,-2.179693,0.982524
0.655000,-1.227968,-2.133597,1.045825
0.675000,-1.261154,-2.099658,1.106211
0.695000,-1.300902,-2.075812,1.164796
0.715000,-1.356393,-2.056124,1.211875
0.735000,-1.425451,-2.041175,1.261695
0.755000,-1.484931,-2.034970,1.312349
0.775000,-1.517779,-2.033245,1.351182
0.795000,-1.524629,-2.025837,1.376301
0.815000,-1.520084,-2.009111,1.383237
0.835000,-1.514240,-1.986018,1.377639
0.855000,-1.505246,-1.959340,1.367682
0.875000,-1.490642,-1.931332,1.354605
0.895000,-1.470343,-1.903077,1.341251
0.915000,-1.446880,-1.874888,1.328907
0.935000,-1.425320,-1.845243,1.312559
0.955000,-1.409043,-1.814300,1.287511
0.975000,-1.398929,-1.783894,1.248002
0.995000,-1.388047,-1.756090,1.192883
1.015000,-1.368490,-1.731553,1.122785
1.035000,-1.343461,-1.707086,1.035512
1.055000,-1.322943,-1.677311,0.931702
1.075000,-1.310429,-1.638288,0.814342
1.095000,-1.294380,-1.590282,0.687490
1.115000,-1.252157,-1.536124,0.560578
1.135000,-1.177132,-1.478456,0.440134
1.155000,-1.084023,-1.422158,0.330884
1.175000,-0.991332,-1.369416,0.238539
1.195000,-0.908618,-1.322083,0.168813
1.215000,-0.840375,-1.278503,0.121527
1.235000,-0.783764,-1.234942,0.092494
1.255000,-0.732851,-1.188532,0.079250
1.275000,-0.685260,-1.137786,0.078433
1.295000,-0.639336,-1.081788,0.088036
1.315000,-0.597274,-1.023357,0.104431
1.337000,-0.563253,-0.969091,0.128232
1.357000,-0.536662,-0.923308,0.158659
1.377000,-0.516252,-0.886390,0.191950
1.397000,-0.503617,-0.859459,0.225193
1.417000,-0.503499,-0.844127,0.258364
1.437000,-0.519197,-0.840282,0.299240
1.457000,-0.547969,-0.843236,0.349787
1.477000,-0.583812,-0.848586,0.396240
1.497000,-0.624094,-0.852218,0.432164
1.517000,-0.664628,-0.854367,0.458658
1.537000,-0.695686,-0.855114,0.478995
1.557000,-0.710272,-0.853318,0.497350
1.577000,-0.709504,-0.848292,0.513116
1.597000,-0.700135,-0.840003,0.524452
1.617000,-0.691155,-0.829522,0.523591
1.637000,-0.681258,-0.818909,0.509434
1.657000,-0.662406,-0.810802,0.485077
1.677000,-0.633676,-0.804781,0.448108
1.697000,-0.599201,-0.798860,0.399063
1.717000,-0.563244,-0.791661,0.340198
1.737000,-0.530097,-0.781304,0.269699
1.757000,-0.501162,-0.766238,0.190158
1.777000,-0.472747,-0.744943,0.110050
1.797000,-0.435492,-0.718042,0.039012
1.817000,-0.383426,-0.687837,-0.014724
1.837000,-0.320999,-0.656602,-0.047977
1.857000,-0.259575,-0.628301,-0.064292
1.877000,-0.208894,-0.603772,-0.067534
1.897000,-0.172817,-0.582635,-0.063564
1.917000,-0.154971,-0.562894,-0.058430
1.937000,-0.155284,-0.543855,-0.051427
1.957000,-0.168758,-0.525907,-0.042674
1.977000,-0.188520,-0.509346,-0.033016
1.997000,-0.207990,-0.495043,-0.021555
2.017000,-0.222697,-0.482937,-0.008727
2.037000,-0.231463,-0.472750,0.005304
2.057000,-0.237165,-0.463884,0.017726
2.077000,-0.242120,-0.456004,0.026386
2.097000,-0.245839,-0.451258,0.032442
2.117000,-0.246373,-0.450047,0.039369
2.137000,-0.241319,-0.451018,0.053707
2.157000,-0.234285,-0.452343,0.074473
2.177000,-0.235635,-0.453049,0.093129
2.197000,-0.254203,-0.453167,0.106073
2.217000,-0.286528,-0.451153,0.112482
2.237000,-0.318708,-0.445344,0.115516
2.257000,-0.337476,-0.435567,0.118769
2.277000,-0.339122,-0.423059,0.122338
2.297000,-0.325896,-0.409845,0.125799
2.317000,-0.301336,-0.397111,0.128866
2.337000,-0.273826,-0.383493,0.129313
2.357000,-0.254055,-0.366717,0.123581
2.377000,-0.247621,-0.346179,0.109982
2.397000,-0.251948,-0.322330,0.088690
2.443000,-0.246551,-0.289064,0.048229
2.463000,-0.219575,-0.255073,0.006524
2.483000,-0.173236,-0.221793,-0.038972
2.503000,-0.118262,-0.191215,-0.088098
2.523000,-0.072785,-0.163261,-0.137003
2.543000,-0.044163,-0.136576,-0.183641
2.563000,-0.022536,-0.113257,-0.223249
2.583000,0.002185,-0.096989,-0.251335
2.603000,0.029661,-0.089411,-0.268754
2.623000,0.053673,-0.087735,-0.278132
2.643000,0.068425,-0.088379,-0.280264
2.663000,0.070037,-0.088825,-0.275496
2.683000,0.056720,-0.088265,-0.264076
2.703000,0.027650,-0.085383,-0.245890
2.723000,-0.017469,-0.079189,-0.222547
2.743000,-0.074962,-0.070678,-0.195030
2.763000,-0.137256,-0.062415,-0.163776
2.783000,-0.197506,-0.056787,-0.130463
2.803000,-0.248559,-0.053684,-0.095260
2.823000,-0.280722,-0.051809,-0.054642
2.843000,-0.286967,-0.050127,0.001515
2.863000,-0.287126,-0.046794,0.063829
2.883000,-0.304277,-0.040022,0.119013
2.903000,-0.332158,-0.030868,0.166075
2.923000,-0.346216,-0.020315,0.204808
2.943000,-0.330786,-0.008039,0.231567
2.963000,-0.289724,0.005069,0.245514
2.983000,-0.233672,0.017939,0.245346
3.003000,-0.170720,0.029957,0.234534
3.023000,-0.109963,0.041843,0.214023
3.043000,-0.058224,0.054951,0.184219
3.063000,-0.018441,0.070004,0.146264
3.083000,0.009208,0.086885,0.099368
3.103000,0.027293,0.106220,0.042312
3.123000,0.039844,0.129075,-0.023503
3.143000,0.051028,0.157025,-0.096570
3.163000,0.072732,0.189651,-0.168357
3.183000,0.116793,0.224010,-0.229998
3.203000,0.180108,0.257186,-0.282973
3.223000,0.243836,0.288005,-0.325179
3.243000,0.288753,0.317805,-0.359546
3.263000,0.310989,0.348969,-0.384121
3.283000,0.318005,0.382610,-0.397406
3.303000,0.318258,0.421005,-0.400652
3.323000,0.318259,0.466428,-0.395561
3.343000,0.323047,0.519496,-0.382746
3.363000,0.336627,0.579519,-0.362093
3.383000,0.360247,0.644429,-0.335694
3.403000,0.392444,0.712328,-0.307041
3.423000,0.427133,0.781989,-0.281292
3.443000,0.456382,0.851608,-0.262496
3.463000,0.475332,0.916587,-0.252481
3.483000,0.485599,0.970186,-0.247737
3.503000,0.493152,1.013183,-0.237810
3.523000,0.500801,1.048534,-0.222026
3.543000,0.506083,1.078967,-0.212270
3.563000,0.502419,1.101915,-0.212852
3.583000,0.494297,1.116813,-0.223129
3.603000,0.494038,1.126769,-0.238793
3.623000,0.505310,1.135747,-0.257301
3.643000,0.522517,1.145685,-0.279130
3.663000,0.539618,1.158210,-0.304177
3.683000,0.555904,1.173944,-0.332905
3.703000,0.571421,1.192596,-0.366289
3.723000,0.584978,1.214393,-0.404810
3.743000,0.595593,1.239590,-0.447802
3.763000,0.598320,1.269979,-0.499645
3.783000,0.594050,1.306461,-0.559689
3.803000,0.591194,1.345603,-0.618499
3.823000,0.600139,1.382149,-0.661695
3.843000,0.625902,1.413977,-0.686321
3.863000,0.658851,1.441227,-0.698384
3.883000,0.682833,1.463313,-0.702302
3.903000,0.692789,1.481743,-0.700763
3.923000,0.695521,1.497188,-0.688949
3.943000,0.699495,1.510108,-0.665795
3.963000,0.707051,1.522448,-0.632073
3.983000,0.717639,1.535677,-0.587683
4.003000,0.730008,1.549227,-0.534455
4.023000,0.740592,1.562379,-0.476612
4.043000,0.746906,1.574727,-0.417053
4.063000,0.750781,1.585711,-0.356907
4.083000,0.751154,1.594685,-0.303662
4.103000,0.744862,1.600940,-0.258645
4.123000,0.728406,1.603253,-0.219249
4.143000,0.703085,1.601961,-0.183085
4.163000,0.679707,1.596943,-0.149588
4.183000,0.665765,1.589385,-0.127266
4.203000,0.656906,1.580838,-0.118632
4.223000,0.648859,1.570889,-0.124883
4.243000,0.645965,1.558133,-0.141213
4.263000,0.651569,1.540624,-0.168449
4.283000,0.662849,1.517427,-0.203902
4.303000,0.674424,1.488525,-0.247254
4.323000,0.681698,1.455799,-0.297702
4.343000,0.682904,1.421577,-0.352535
4.363000,0.679030,1.387385,-0.409971
4.383000,0.672530,1.354284,-0.471011
4.403000,0.666553,1.323282,-0.534296
4.423000,0.661002,1.295820,-0.600637
4.464000,0.650472,1.280071,-0.668167
4.484000,0.637468,1.270614,-0.732762
4.504000,0.625330,1.269128,-0.783399
4.524000,0.617553,1.274267,-0.807293
4.544000,0.616233,1.283052,-0.791493
4.564000,0.620860,1.292815,-0.738248
4.584000,0.626148,1.301072,-0.663067
4.604000,0.631491,1.306455,-0.566032
4.624000,0.632623,1.310611,-0.460082
4.644000,0.626582,1.315979,-0.353582
4.664000,0.616582,1.322460,-0.246180
4.684000,0.606702,1.328356,-0.143988
4.704000,0.596575,1.331060,-0.056671
4.724000,0.583710,1.329178,0.011646
4.744000,0.566895,1.321826,0.056653
4.764000,0.547296,1.308305,0.076909
4.784000,0.526920,1.288233,0.074028
4.804000,0.506917,1.260938,0.052788
4.824000,0.488055,1.225654,0.022732
4.844000,0.474038,1.182660,-0.006412
4.864000,0.465756,1.131799,-0.040734
4.884000,0.461910,1.073676,-0.080498
4.904000,0.459373,1.006693,-0.119578
4.924000,0.450289,0.935825,-0.160391
4.944000,0.432979,0.868367,-0.201613
4.964000,0.409241,0.807552,-0.244645
4.984000,0.383823,0.753895,-0.289315
5.004000,0.365178,0.706296,-0.329770
5.024000,0.358507,0.662218,-0.360989
5.044000,0.364560,0.623590,-0.380087
5.064000,0.379470,0.590579,-0.387475
5.084000,0.398280,0.564451,-0.387626
5.104000,0.415962,0.546666,-0.381719
5.124000,0.426671,0.537567,-0.369836
5.144000,0.424538,0.540588,-0.356029
5.164000,0.408720,0.551332,-0.337390
5.184000,0.385704,0.572673,-0.306638
5.204000,0.359625,0.600165,-0.244853
5.224000,0.333544,0.631125,-0.156988
5.244000,0.313085,0.660998,-0.068158
5.264000,0.306624,0.684971,0.026823
5.284000,0.310866,0.702257,0.109795
5.304000,0.322344,0.713443,0.175145
5.324000,0.337616,0.718317,0.216754
5.344000,0.352553,0.716516,0.231331
5.364000,0.364525,0.708103,0.219617
5.384000,0.373881,0.692816,0.184307
5.404000,0.383305,0.671301,0.130671
5.424000,0.394202,0.643738,0.062775
5.444000,0.405438,0.608285,-0.019151
5.464000,0.415386,0.563933,-0.110896
5.484000,0.422268,0.512248,-0.200063
5.504000,0.422280,0.459420,-0.276688
5.524000,0.415807,0.409018,-0.329911
5.544000,0.406677,0.362364,-0.355867
5.564000,0.394364,0.319962,-0.360000
5.584000,0.377932,0.285493,-0.345375
5.604000,0.358311,0.260929,-0.316530
5.624000,0.337455,0.244970,-0.274228
5.644000,0.318827,0.235019,-0.221167
5.664000,0.306432,0.225734,-0.159948
5.684000,0.301177,0.214130,-0.092343
5.704000,0.297761,0.200796,-0.023336
5.724000,0.288156,0.186993,0.040595
5.744000,0.267314,0.174374,0.091801
5.764000,0.235916,0.164017,0.126077
5.784000,0.199020,0.157006,0.144192
5.804000,0.163025,0.153691,0.147277
5.824000,0.134197,0.154341,0.138162
5.844000,0.118144,0.157953,0.120209
5.864000,0.119502,0.163588,0.097355
5.884000,0.140988,0.170086,0.079705
5.904000,0.171267,0.176325,0.057810
5.924000,0.197516,0.179406,0.032272
5.944000,0.211137,0.179138,0.001700
5.964000,0.213697,0.179330,-0.035924
5.984000,0.217934,0.182117,-0.076249
6.004000,0.232863,0.187473,-0.117533
6.024000,0.258120,0.194347,-0.159724
6.044000,0.287831,0.202691,-0.203047
6.064000,0.316800,0.211977,-0.245191
6.084000,0.344054,0.221409,-0.284748
6.104000,0.369531,0.230724,-0.320646
6.124000,0.390840,0.240762,-0.351341
6.144000,0.404068,0.253002,-0.378035
6.164000,0.408418,0.268072,-0.399998
6.184000,0.405986,0.287036,-0.415362
6.204000,0.398943,0.309182,-0.418480
6.224000,0.393852,0.330005,-0.409313
6.244000,0.400277,0.347902,-0.392449
6.264000,0.418579,0.360549,-0.373234
6.284000,0.434706,0.369211,-0.356342
6.304000,0.442432,0.374979,-0.341061
6.324000,0.443166,0.378910,-0.326285
6.344000,0.441776,0.381699,-0.310346
6.364000,0.437819,0.382004,-0.298515
6.384000,0.430230,0.379024,-0.292698
6.404000,0.422505,0.372802,-0.286739
6.424000,0.382878,0.357690,-0.257911
6.444000,0.335221,0.344295,-0.262632
