accel_time_list,accel_x_list,accel_y_list,accel_z_list
0.291,4.085705,2.822764,1.320402
0.311,5.585004,3.800737,1.77808
0.331,6.364449,4.54141,2.332959
0.351,6.602649,4.621007,2.422459
0.371,6.812131,4.806741,2.541434
0.391,7.008485,4.921175,2.616434
0.411,7.245786,5.035507,2.534568
0.431,7.479109,5.092937,2.443904
0.47,7.750446,5.144101,2.294224
0.49,7.888066,5.142632,2.126597
0.51,7.921697,5.137525,2.215039
0.53,8.005887,5.066274,1.972441
0.55,8.020177,4.995869,1.865511
0.57,8.177509,4.915425,1.714365
0.59,8.300559,4.977558,1.70898
0.61,8.381329,5.007605,1.693574
0.63,8.434525,5.042807,1.641475
0.65,8.491793,5.054404,1.553915
0.67,8.469133,5.051786,1.441136
0.69,8.378284,4.970982,1.382066
0.71,8.497543,4.963248,1.337948
0.749,8.437501,4.876416,1.283707
0.769,8.337438,4.755079,1.239688
0.789,8.429517,4.658551,1.170214
0.809,8.584698,4.643515,1.042709
0.829,8.726602,4.638923,0.988969
0.849,8.728448,4.600587,0.976308
0.869,8.74576,4.549714,0.974792
0.889,8.802952,4.514221,0.965375
0.909,8.943436,4.480192,0.898392
0.929,9.036893,4.412063,0.825047
0.949,8.97212,4.262856,0.821473
0.969,8.900416,4.118929,0.823249
0.989,9.033713,4.07138,0.672275
1.028,9.013977,3.934051,0.597651
1.048,8.994907,3.771215,0.51092
1.068,8.988977,3.613368,0.432885
1.088,9.013711,3.502577,0.374891
1.108,9.029023,3.453434,0.37166
1.128,9.024498,3.383428,0.359638
1.148,9.02747,3.266482,0.393479
1.168,9.056114,3.196158,0.338747
1.188,9.127237,3.152204,0.339033
1.208,9.180004,3.101901,0.307296
1.228,9.211375,3.033099,0.29681
1.248,9.233143,2.964646,0.29362
1.268,9.265042,2.92135,0.296527
1.307,9.284738,2.895505,0.299525
1.327,9.299591,2.855516,0.302882
1.347,9.294449,2.782042,0.290073
1.367,9.329247,2.723998,0.241879
1.387,9.371395,2.673645,0.184608
1.407,9.379976,2.608629,0.13945
1.427,9.389448,2.550325,0.096227
1.447,9.42347,2.50589,0.049186
1.467,9.462266,2.456206,-0.004774
1.487,9.52899,2.409058,-0.077224
1.507,9.571294,2.350213,-0.159114
1.527,9.572826,2.28993,-0.240739
1.547,9.58553,2.232288,-0.325613
1.586,9.60018,2.213841,-0.384622
1.606,9.601306,2.202342,-0.423772
1.626,9.58926,2.215024,-0.464128
1.646,9.59872,2.243161,-0.464183
1.666,9.622602,2.280183,-0.473989
1.686,9.62731,2.307254,-0.483116
1.706,9.629494,2.333751,-0.499704
1.726,9.624095,2.324279,-0.511118
1.746,9.615305,2.29031,-0.521615
1.766,9.6288,2.29683,-0.536241
1.786,9.648675,2.312448,-0.553018
1.806,9.655982,2.314687,-0.572836
1.845,9.652397,2.294652,-0.584246
1.865,9.65695,2.291387,-0.603427
1.885,9.680083,2.309009,-0.61476
1.905,9.697499,2.32967,-0.621567
1.925,9.702094,2.335318,-0.630302
1.945,9.696686,2.329821,-0.64112
1.965,9.685381,2.319183,-0.645104
1.985,9.686918,2.319554,-0.64733
2.005,9.704576,2.336722,-0.64372
2.025,9.723825,2.357213,-0.639959
2.045,9.734078,2.364389,-0.635653
2.065,9.732673,2.361347,-0.631434
2.085,9.722721,2.354861,-0.626449
2.124,9.722857,2.354914,-0.622265
2.144,9.732464,2.364223,-0.620956
2.164,9.741543,2.371782,-0.622714
2.184,9.748321,2.37776,-0.621267
2.204,9.744726,2.37901,-0.617938
2.224,9.745581,2.380122,-0.624511
2.244,9.755584,2.382694,-0.63254
2.264,9.757305,2.382587,-0.628019
2.284,9.760182,2.384529,-0.621933
2.304,9.761714,2.38694,-0.613426
2.324,9.768431,2.390768,-0.607157
2.344,9.77595,2.394817,-0.606648
2.364,9.782159,2.39886,-0.605303
2.403,9.78686,2.401719,-0.599472
2.423,9.789783,2.401806,-0.591934
2.449,9.79681,2.40783,-0.582151
2.483,9.8072,2.419265,-0.567589
2.503,9.810369,2.43246,-0.555347
2.523,9.803819,2.435001,-0.535465
2.543,9.801398,2.446684,-0.510028
2.563,9.800885,2.462487,-0.480499
2.583,9.801867,2.479714,-0.446169
2.603,9.815531,2.490337,-0.400883
2.623,9.821911,2.496938,-0.363572
2.662,9.818478,2.507692,-0.328994
2.682,9.808383,2.510762,-0.290938
2.702,9.796205,2.509357,-0.251616
2.722,9.785769,2.507407,-0.212741
2.742,9.774814,2.507833,-0.173503
2.762,9.767147,2.515738,-0.12852
2.782,9.764122,2.530819,-0.073275
2.802,9.759274,2.544765,-0.003585
2.822,9.754715,2.558886,0.060867
2.842,9.74676,2.569582,0.119489
2.862,9.737884,2.575372,0.175562
2.882,9.729466,2.581051,0.228592
2.921,9.724262,2.591374,0.284845
2.941,9.719534,2.605943,0.344792
2.961,9.718946,2.620429,0.398303
2.981,9.719931,2.642407,0.4458
3.001,9.71572,2.651711,0.493359
3.021,9.709398,2.651294,0.546977
3.041,9.70835,2.658933,0.590064
3.061,9.698901,2.663349,0.627285
3.081,9.698719,2.668125,0.663238
3.101,9.702512,2.67223,0.699135
3.121,9.703598,2.680416,0.741374
3.141,9.704199,2.688975,0.778265
3.161,9.701245,2.695227,0.811699
3.2,9.696114,2.69879,0.843908
3.22,9.692666,2.702218,0.878156
3.24,9.692183,2.708199,0.917168
3.26,9.69673,2.715427,0.951669
3.28,9.703585,2.723371,0.983421
3.3,9.704431,2.727164,1.012115
3.32,9.700381,2.726048,1.034607
3.34,9.695644,2.725854,1.05906
3.36,9.692176,2.728611,1.087276
3.38,9.67312,2.731366,1.139981
3.4,9.680387,2.736558,1.164273
3.42,9.6907,2.746499,1.194404
3.44,9.694452,2.757053,1.21832
3.479,9.688392,2.754047,1.237999
3.499,9.684839,2.753868,1.262484
3.519,9.685661,2.758175,1.290483
3.539,9.688005,2.765597,1.321213
3.559,9.703189,2.771652,1.329367
3.579,9.704124,2.77842,1.355984
3.599,9.705222,2.786224,1.386113
3.619,9.70435,2.788455,1.406572
3.639,9.701477,2.788194,1.426357
3.659,9.700359,2.788182,1.446553
3.679,9.701475,2.790282,1.468796
3.699,9.702575,2.793217,1.490396
3.719,9.701868,2.795686,1.512448
3.758,9.70119,2.799769,1.537264
3.778,9.700114,2.804427,1.564309
3.798,9.698999,2.809514,1.590039
3.818,9.696014,2.812772,1.614432
3.838,9.693634,2.815283,1.637025
3.858,9.691991,2.817739,1.65653
3.878,9.691126,2.81893,1.673077
3.898,9.687149,2.82039,1.691529
3.918,9.684979,2.821297,1.703471
3.938,9.687378,2.822398,1.702006
3.958,9.6895,2.823837,1.693115
3.978,9.691035,2.82581,1.682383
3.998,9.69307,2.825658,1.664229
4.037,9.696649,2.821234,1.625971
4.057,9.701472,2.817374,1.585458
4.077,9.707047,2.8134,1.543316
4.097,9.710824,2.808432,1.500811
4.117,9.711198,2.802087,1.457256
4.137,9.711128,2.794971,1.416975
4.157,9.71193,2.789175,1.378224
4.177,9.71302,2.7844,1.339599
4.197,9.716411,2.78205,1.305986
4.217,9.718858,2.779783,1.272561
4.237,9.719049,2.776794,1.240558
4.257,9.718424,2.774868,1.210214
4.277,9.719213,2.772691,1.177779
4.316,9.720475,2.769081,1.141755
4.336,9.721098,2.764385,1.105681
4.356,9.721062,2.759894,1.070089
4.376,9.720679,2.75642,1.03652
4.396,9.721023,2.753898,1.004895
4.416,9.721533,2.750803,0.970754
4.436,9.720938,2.748479,0.936518
4.456,9.723442,2.74848,0.908323
4.476,9.727176,2.749339,0.878346
4.496,9.730186,2.750335,0.851061
4.516,9.730018,2.749017,0.825068
4.536,9.728432,2.746176,0.802042
4.556,9.72757,2.74511,0.778133
4.595,9.731158,2.747284,0.754316
4.621,9.733163,2.747867,0.730443
4.657,9.73215,2.745348,0.705608
4.695,9.735147,2.74668,0.685816
4.715,9.736335,2.748373,0.66965
4.735,9.735609,2.747702,0.651835
4.755,9.735255,2.746776,0.633742
4.775,9.736843,2.745938,0.611203
4.795,9.739191,2.746553,0.589474
4.815,9.739323,2.747955,0.572557
4.835,9.739367,2.747291,0.554364
4.874,9.740191,2.747072,0.535419
4.894,9.74123,2.746361,0.516458
4.914,9.742174,2.746166,0.496055
4.934,9.74294,2.745425,0.474836
4.954,9.743892,2.744766,0.454836
4.974,9.744502,2.745243,0.437596
4.994,9.745284,2.746794,0.422697
5.014,9.746126,2.748894,0.40777
5.034,9.746606,2.749527,0.389644
5.054,9.747418,2.749191,0.372551
5.074,9.748101,2.748544,0.357373
5.094,9.748911,2.748516,0.337982
5.133,9.749632,2.74668,0.325943
5.153,9.750319,2.746297,0.311808
5.173,9.751818,2.747345,0.298697
5.193,9.752565,2.748243,0.286781
5.213,9.752939,2.748604,0.273958
5.233,9.754129,2.748673,0.260581
5.253,9.754685,2.748781,0.249944
5.273,9.755301,2.748821,0.237879
5.293,9.756256,2.748413,0.223996
5.313,9.756985,2.748145,0.210964
5.333,9.757998,2.748241,0.198644
5.353,9.758471,2.748109,0.186946
5.373,9.759078,2.748164,0.176318
5.412,9.759541,2.748443,0.165634
5.432,9.76031,2.748509,0.154394
5.452,9.76111,2.748418,0.142456
5.472,9.761692,2.748134,0.130079
5.492,9.762268,2.748484,0.118919
5.512,9.762838,2.748485,0.107118
5.532,9.76344,2.748344,0.097202
5.552,9.763866,2.748536,0.088363
5.572,9.764579,2.749231,0.079737
5.592,9.7652,2.749454,0.06995
5.612,9.765851,2.749374,0.057682
5.632,9.766747,2.749308,0.045726
5.652,9.767302,2.74913,0.035548
5.691,9.767875,2.748943,0.027857
5.711,9.768478,2.748928,0.019371
5.731,9.769053,2.749134,0.010805
5.751,9.76989,2.749726,0.001995
5.771,9.770464,2.749587,-0.007815
5.791,9.770813,2.749377,-0.016268
5.811,9.771563,2.749253,-0.024185
5.831,9.772351,2.74913,-0.032507
5.851,9.772882,2.749507,-0.039101
5.871,9.773396,2.74929,-0.047821
5.891,9.774245,2.749063,-0.056531
5.911,9.774647,2.748979,-0.06358
5.95,9.775393,2.749,-0.072321
5.97,9.775899,2.74887,-0.079882
5.99,9.776646,2.749007,-0.087204
6.01,9.777152,2.750152,-0.091168
6.03,9.777322,2.750522,-0.09752
6.05,9.777755,2.749989,-0.104619
6.07,9.778238,2.750005,-0.112134
6.09,9.778948,2.749625,-0.121255
6.11,9.779488,2.74962,-0.130323
6.13,9.780066,2.749749,-0.136056
6.15,9.780294,2.750612,-0.139789
6.17,9.780854,2.75088,-0.14493
6.19,9.78127,2.751211,-0.149601
6.229,9.782035,2.75132,-0.156397
6.249,9.782293,2.750826,-0.164708
6.269,9.782921,2.749845,-0.171993
6.289,9.783543,2.750187,-0.176428
6.309,9.78397,2.750893,-0.180718
6.329,9.784279,2.7514,-0.185471
6.349,9.784857,2.751817,-0.191362
6.369,9.785357,2.75161,-0.197913
6.389,9.78577,2.751703,-0.203408
6.409,9.786489,2.751307,-0.209185
6.429,9.786875,2.751295,-0.214396
6.449,9.787482,2.751398,-0.219812
6.469,9.787881,2.751606,-0.224826
6.508,9.788236,2.75179,-0.229231
6.528,9.788669,2.752275,-0.233403
6.548,9.789229,2.752559,-0.238056
6.568,9.789635,2.752583,-0.243126
6.588,9.790127,2.752627,-0.248511
6.608,9.790675,2.752712,-0.25417
6.628,9.791169,2.752307,-0.260701
6.648,9.791471,2.752099,-0.265787
6.668,9.791998,2.752164,-0.270083
6.688,9.792619,2.75238,-0.27436
6.708,9.793049,2.752404,-0.278564
6.728,9.79327,2.752289,-0.28323
6.767,9.793997,2.752293,-0.289121
6.787,9.794388,2.752178,-0.294324
6.811,9.79465,2.751878,-0.29894
6.848,9.795045,2.752119,-0.302685
6.887,9.795312,2.75232,-0.307032
6.907,9.79552,2.75208,-0.312292
6.927,9.796012,2.751988,-0.317636
6.947,9.796653,2.752042,-0.322404
6.967,9.796701,2.751806,-0.326709
6.987,9.796779,2.751304,-0.330436
7.007,9.797466,2.75179,-0.333994
7.046,9.797418,2.751444,-0.338782
7.066,9.797715,2.751214,-0.343274
7.086,9.798308,2.751052,-0.347835
7.106,9.798814,2.75124,-0.351432
7.126,9.799085,2.751079,-0.355415
7.147,9.799206,2.750779,-0.360086
7.186,9.799858,2.751321,-0.362954
7.206,9.799747,2.751198,-0.366752
7.226,9.800156,2.751086,-0.370423
7.246,9.80057,2.751538,-0.372961
7.266,9.800847,2.751029,-0.37727
7.305,9.801194,2.751561,-0.380253
7.325,9.801664,2.751449,-0.384575
7.345,9.801826,2.751365,-0.388273
7.365,9.802068,2.750701,-0.39308
7.385,9.80237,2.749291,-0.397166
7.405,9.802865,2.749649,-0.398993
7.425,9.803428,2.749798,-0.401868
7.445,9.803916,2.750537,-0.403871
7.465,9.804366,2.751165,-0.4054
7.485,9.804839,2.751271,-0.407246
7.505,9.805248,2.750888,-0.409975
7.525,9.805636,2.750587,-0.413859
7.545,9.805883,2.750023,-0.417892
7.584,9.806501,2.74993,-0.420865
7.604,9.807029,2.749811,-0.423681
7.624,9.807295,2.749501,-0.426699
7.644,9.808065,2.749741,-0.429066
7.664,9.808702,2.749502,-0.431976
7.684,9.808832,2.749049,-0.434196
7.704,9.809139,2.748909,-0.436743
7.724,9.810106,2.748607,-0.441393
7.744,9.810906,2.747921,-0.444832
7.764,9.811524,2.746846,-0.448479
7.784,9.811347,2.74623,-0.450208
7.804,9.811666,2.746332,-0.452171
7.824,9.812813,2.746407,-0.45489
7.863,9.812925,2.746102,-0.457179
7.883,9.812903,2.746111,-0.459118
7.903,9.813006,2.746195,-0.460948
7.923,9.813307,2.745877,-0.463624
7.943,9.813762,2.745786,-0.465207
7.963,9.814222,2.745829,-0.466278
7.983,9.814566,2.746078,-0.467265
8.003,9.81467,2.746475,-0.468025
8.023,9.814878,2.746557,-0.470164
8.043,9.814948,2.746826,-0.471227
8.063,9.815042,2.746832,-0.472208
8.083,9.815869,2.747074,-0.47322
8.103,9.81645,2.747226,-0.474404
8.142,9.816586,2.747206,-0.475031
8.162,9.816712,2.74675,-0.476706
8.182,9.817174,2.746595,-0.478157
8.202,9.817688,2.746609,-0.479662
8.222,9.818287,2.746984,-0.480589
8.242,9.818827,2.747604,-0.481221
8.262,9.819221,2.748164,-0.48175
8.282,9.819062,2.748023,-0.482098
8.302,9.819344,2.747961,-0.48251
8.322,9.819788,2.748089,-0.483144
8.342,9.820292,2.748626,-0.483665
8.362,9.820716,2.749253,-0.484776
8.382,9.820911,2.749533,-0.486165
8.421,9.821152,2.749514,-0.486715
8.441,9.821692,2.749083,-0.487612
8.461,9.822261,2.748809,-0.487889
8.481,9.822641,2.748816,-0.489093
8.501,9.822905,2.7487,-0.491019
8.521,9.823403,2.749122,-0.491582
8.541,9.823968,2.749565,-0.492318
8.561,9.824286,2.749654,-0.493098
8.581,9.824291,2.749841,-0.493452
8.601,9.823812,2.749708,-0.494935
8.621,9.823931,2.749962,-0.495828
8.641,9.824659,2.750358,-0.496326
8.68,9.825129,2.750171,-0.497117
8.7,9.825041,2.750083,-0.498259
8.72,9.825245,2.750131,-0.500129
8.74,9.825784,2.750837,-0.501186
8.76,9.826222,2.751315,-0.502416
8.78,9.826518,2.751634,-0.503002
8.8,9.827085,2.752144,-0.503122
8.82,9.827407,2.752518,-0.50306
8.84,9.827313,2.752794,-0.502459
8.86,9.827294,2.752766,-0.502867
8.88,9.827861,2.752988,-0.503687
8.9,9.82833,2.75296,-0.505175
8.92,9.828701,2.752764,-0.506237
8.959,9.82902,2.752722,-0.506984
8.979,9.829569,2.753211,-0.506882
8.999,9.829717,2.753146,-0.507957
9.024,9.829871,2.753052,-0.508594
9.059,9.83042,2.753176,-0.509571
9.079,9.830428,2.752824,-0.510898
9.099,9.830049,2.752603,-0.51172
9.12,9.830022,2.752706,-0.512489
9.159,9.83112,2.753677,-0.512511
9.179,9.831197,2.754054,-0.512533
9.199,9.831003,2.753831,-0.512825
9.238,9.831228,2.753461,-0.513991
9.258,9.831784,2.753369,-0.514991
9.278,9.832337,2.753531,-0.515782
9.298,9.832712,2.753805,-0.516455
9.318,9.832762,2.753495,-0.517321
9.338,9.832952,2.75383,-0.517475
9.358,9.833357,2.754374,-0.517802
9.378,9.833579,2.754329,-0.518324
9.398,9.833945,2.754653,-0.518155
9.418,9.834345,2.755009,-0.518454
9.438,9.834424,2.754714,-0.519388
9.458,9.834826,2.754958,-0.519969
9.478,9.835172,2.755256,-0.520771
9.517,9.835591,2.75556,-0.521022
9.537,9.835803,2.755896,-0.521239
9.557,9.835788,2.756258,-0.521104
9.577,9.836086,2.756754,-0.521108
9.597,9.836384,2.757057,-0.521899
9.617,9.83632,2.756986,-0.522924
9.637,9.836263,2.756813,-0.523911
9.657,9.836476,2.756668,-0.524775
9.677,9.836991,2.756733,-0.525374
9.697,9.837377,2.756938,-0.525586
9.717,9.837444,2.757283,-0.525602
9.737,9.837626,2.757593,-0.525903
9.757,9.837953,2.758089,-0.526651
9.796,9.838112,2.758435,-0.526763
9.816,9.838423,2.758674,-0.527168
9.836,9.838679,2.758957,-0.527479
9.856,9.838769,2.759028,-0.528239
9.876,9.839069,2.759534,-0.528413
9.896,9.839368,2.759978,-0.528904
9.916,9.8396,2.760282,-0.529293
9.936,9.839732,2.760427,-0.529886
9.956,9.839857,2.760361,-0.530514
9.976,9.840093,2.760812,-0.530273
9.996,9.840288,2.760948,-0.530807
10.016,9.840398,2.761019,-0.531532
10.036,9.840889,2.761451,-0.531814
10.075,9.840874,2.761391,-0.531696
10.095,9.840633,2.76142,-0.532063
10.115,9.840741,2.761714,-0.532859
10.135,9.841271,2.762417,-0.53341
10.155,9.841729,2.762758,-0.534321
10.175,9.841891,2.762733,-0.535187
10.195,9.842307,2.76267,-0.536285
10.215,9.842613,2.762479,-0.537233
10.235,9.842714,2.762271,-0.537768
10.255,9.842834,2.762247,-0.538177
10.275,9.843004,2.762603,-0.537954
10.295,9.843035,2.763039,-0.537657
10.315,9.843348,2.763303,-0.538212
10.354,9.843609,2.763108,-0.540147
10.374,9.844026,2.763057,-0.541581
10.394,9.844347,2.762944,-0.542413
10.414,9.844972,2.763281,-0.542186
10.434,9.845694,2.763336,-0.543102
10.454,9.846195,2.763384,-0.544077
10.474,9.846869,2.763749,-0.545412
10.494,9.847335,2.762899,-0.547498
10.514,9.847329,2.761416,-0.548706
10.534,9.847169,2.760481,-0.547593
10.554,9.847238,2.760857,-0.544296
10.574,9.848719,2.762915,-0.540447
10.594,9.850682,2.765008,-0.537053
10.633,9.85039,2.765176,-0.53327
10.653,9.849437,2.765176,-0.527836
10.673,9.848382,2.765656,-0.520328
10.693,9.848085,2.767025,-0.511802
10.713,9.847606,2.769047,-0.502088
10.733,9.846658,2.771363,-0.492085
10.753,9.845829,2.773092,-0.483505
10.773,9.845565,2.773836,-0.476534
10.793,9.845374,2.773913,-0.470417
10.813,9.845428,2.774063,-0.46546
10.833,9.846111,2.774175,-0.46201
10.853,9.847162,2.774232,-0.460311
10.873,9.848457,2.774484,-0.458325
10.912,9.848485,2.774814,-0.45347
10.932,9.848132,2.775629,-0.446946
10.952,9.848426,2.776914,-0.440865
10.972,9.848706,2.778203,-0.435434
10.992,9.849285,2.779634,-0.429768
11.012,9.84955,2.780636,-0.424566
11.032,9.849204,2.780797,-0.419528
11.052,9.849402,2.78097,-0.41373
11.072,9.849677,2.781444,-0.408613
11.092,9.850254,2.781482,-0.405968
11.112,9.850965,2.781754,-0.403425
11.132,9.851871,2.782482,-0.400669
11.152,9.852506,2.783045,-0.397154
11.191,9.852333,2.78348,-0.391734
11.214,9.852274,2.78377,-0.386912
11.251,9.85281,2.784674,-0.382652
11.275,9.853585,2.785622,-0.378591
11.311,9.853782,2.785578,-0.375085
11.331,9.853884,2.785438,-0.37178
11.351,9.854412,2.78556,-0.368204
11.371,9.855009,2.786037,-0.364336
11.391,9.855289,2.786607,-0.360235
11.411,9.855916,2.787175,-0.357016
11.45,9.856128,2.78705,-0.354107
11.47,9.856385,2.787191,-0.350679
11.49,9.856729,2.787472,-0.346526
11.51,9.857262,2.787793,-0.342584
11.53,9.85751,2.788077,-0.338498
11.55,9.857768,2.788664,-0.33484
11.57,9.857933,2.78901,-0.33166
11.59,9.858339,2.789459,-0.328435
11.61,9.858812,2.789842,-0.325284
11.63,9.859364,2.790456,-0.321475
11.65,9.860016,2.79079,-0.318184
11.67,9.860243,2.790658,-0.315608
11.69,9.860377,2.790667,-0.312828
11.729,9.860807,2.790871,-0.309933
11.749,9.861116,2.79112,-0.306767
11.769,9.861459,2.791437,-0.303713
11.789,9.861953,2.792068,-0.299983
11.809,9.862185,2.792261,-0.296937
11.829,9.862319,2.792231,-0.294427
11.849,9.862532,2.792161,-0.291743
11.869,9.863059,2.792314,-0.288817
11.889,9.863725,2.792664,-0.28612
11.909,9.864507,2.792769,-0.283701
11.929,9.86514,2.792574,-0.2811
11.949,9.865255,2.792098,-0.278951
11.969,9.865012,2.791883,-0.276962
12.008,9.865814,2.792793,-0.274515
12.028,9.866558,2.793443,-0.271496
12.048,9.866597,2.793506,-0.267486
12.068,9.866246,2.793149,-0.263831
12.088,9.866186,2.792983,-0.261019
12.108,9.866808,2.793019,-0.259527
12.128,9.867716,2.793188,-0.258365
12.148,9.868311,2.793085,-0.257085
12.168,9.868578,2.792787,-0.255165
12.188,9.868949,2.792956,-0.252125
12.208,9.869417,2.793219,-0.249619
12.228,9.869653,2.793552,-0.247165
12.248,9.870201,2.793872,-0.244174
12.287,9.870292,2.793449,-0.242255
12.307,9.870579,2.793126,-0.240416
12.327,9.870996,2.793139,-0.238711
12.347,9.871494,2.793147,-0.237314
12.367,9.87198,2.793264,-0.235725
12.387,9.872267,2.793489,-0.233505
12.407,9.87264,2.793789,-0.231183
12.427,9.873126,2.793947,-0.228472
12.447,9.873377,2.793774,-0.226316
12.467,9.873459,2.793385,-0.224581
12.487,9.873594,2.792943,-0.223206
12.507,9.874,2.792725,-0.22202
12.527,9.8747,2.793008,-0.220124
12.547,9.875182,2.793144,-0.218276
12.586,9.875528,2.793345,-0.216438
12.606,9.875782,2.793298,-0.214572
12.626,9.876104,2.793102,-0.212154
12.646,9.876479,2.792949,-0.209513
12.666,9.876778,2.792829,-0.207455
12.686,9.876973,2.792374,-0.205904
12.706,9.877003,2.792011,-0.204231
12.726,9.877336,2.792074,-0.202521
12.746,9.878007,2.792544,-0.200346
12.766,9.878921,2.792823,-0.197949
12.786,9.879153,2.792377,-0.195554
12.806,9.878738,2.791879,-0.193579
12.826,9.879055,2.791874,-0.192505
12.865,9.879904,2.791957,-0.191631
12.885,9.879911,2.791254,-0.191327
12.905,9.879581,2.790652,-0.190518
12.925,9.879915,2.790665,-0.189404
12.945,9.880952,2.791017,-0.188351
12.965,9.881498,2.791039,-0.187724
12.985,9.881135,2.790493,-0.18762
13.005,9.881113,2.790007,-0.187671
13.025,9.881672,2.789673,-0.187415
13.045,9.881931,2.789464,-0.18654
13.065,9.882065,2.789293,-0.185086
13.085,9.882677,2.789339,-0.183255
13.105,9.883303,2.789313,-0.181031
13.144,9.883307,2.788782,-0.179631
13.164,9.883775,2.788377,-0.179238
13.184,9.884287,2.788081,-0.17931
13.204,9.88473,2.787698,-0.17979
13.224,9.885275,2.787302,-0.180284
13.244,9.885859,2.787004,-0.180114
13.264,9.886185,2.786779,-0.179655
13.284,9.886292,2.786544,-0.178911
13.304,9.886563,2.78628,-0.178189
13.324,9.886844,2.785935,-0.177532
13.344,9.887272,2.785627,-0.176541
13.364,9.887693,2.785193,-0.175858
13.387,9.888027,2.784842,-0.175846
13.423,9.888513,2.784487,-0.176066
13.443,9.888705,2.784133,-0.175924
13.463,9.888985,2.783815,-0.175646
13.483,9.889568,2.783736,-0.175515
13.503,9.89013,2.783426,-0.175623
13.523,9.890435,2.782729,-0.175451
13.543,9.890552,2.782019,-0.174621
13.563,9.890587,2.781733,-0.17314
13.583,9.890925,2.781634,-0.17233
13.603,9.891187,2.781474,-0.172179
13.623,9.891482,2.780906,-0.172338
13.643,9.892019,2.780259,-0.172114
13.663,9.892424,2.779684,-0.171707
13.702,9.892575,2.779545,-0.172306
13.722,9.892972,2.779834,-0.172744
13.742,9.893328,2.780231,-0.172306
13.762,9.893472,2.780478,-0.170869
13.782,9.89369,2.780442,-0.169266
13.802,9.893893,2.780173,-0.168383
13.822,9.89418,2.779811,-0.168364
13.842,9.894521,2.779401,-0.168899
13.862,9.894994,2.779037,-0.169066
13.882,9.895322,2.778427,-0.168785
13.902,9.895505,2.777711,-0.168151
13.922,9.895712,2.777154,-0.167568
13.942,9.896111,2.777096,-0.167416
13.981,9.896371,2.777273,-0.167665
14.001,9.896724,2.777273,-0.167433
14.021,9.896893,2.777097,-0.166493
14.041,9.896982,2.7768,-0.165256
14.061,9.897263,2.776337,-0.164605
14.081,9.897655,2.775959,-0.164242
14.101,9.898062,2.775461,-0.164427
14.121,9.898408,2.775114,-0.164839
14.141,9.898699,2.775065,-0.165186
14.161,9.899028,2.775584,-0.164982
14.181,9.899317,2.776425,-0.163772
14.201,9.899459,2.776654,-0.162154
14.221,9.899446,2.776356,-0.160465
14.26,9.899703,2.775763,-0.160777
14.28,9.900313,2.775593,-0.161684
14.3,9.900772,2.775384,-0.162905
14.32,9.901118,2.775152,-0.163578
14.34,9.901358,2.775022,-0.163221
14.36,9.901552,2.774815,-0.162356
14.38,9.90178,2.774628,-0.161373
14.4,9.901873,2.77438,-0.160886
14.42,9.902228,2.774066,-0.16113
14.44,9.902694,2.773767,-0.161601
14.46,9.90288,2.773183,-0.162352
14.48,9.902917,2.772577,-0.163159
14.5,9.903126,2.772248,-0.163796
14.52,9.903653,2.771892,-0.164217
14.559,9.903688,2.771437,-0.163759
14.579,9.903572,2.771283,-0.163153
14.599,9.90385,2.771503,-0.163152
14.619,9.904576,2.772002,-0.163848
14.639,9.905046,2.77214,-0.164443
14.659,9.905041,2.771673,-0.164147
14.679,9.904937,2.771029,-0.163346
14.699,9.905121,2.770353,-0.162854
14.719,9.905751,2.769999,-0.162795
14.739,9.906187,2.769486,-0.163911
14.759,9.906425,2.768875,-0.165266
14.779,9.9066,2.768388,-0.166069
14.818,9.90699,2.7685,-0.165544
14.838,9.907295,2.768648,-0.165367
14.858,9.907038,2.768529,-0.165491
14.878,9.907024,2.767789,-0.165388
14.898,9.908181,2.767265,-0.165678
14.918,9.908329,2.767359,-0.165335
14.938,9.907804,2.767364,-0.16569
14.958,9.907645,2.767588,-0.164908
14.978,9.908993,2.767858,-0.164649
14.998,9.909003,2.767486,-0.164874
15.018,9.908525,2.766559,-0.166268
15.038,9.909187,2.765999,-0.167577
15.077,9.909699,2.766128,-0.166387
15.097,9.908877,2.765806,-0.165295
15.117,9.908985,2.765847,-0.16468
15.137,9.910015,2.766105,-0.164795
15.157,9.910437,2.76555,-0.165822
15.177,9.909967,2.764401,-0.166851
15.197,9.909814,2.763738,-0.167237
15.217,9.910572,2.764046,-0.166784
15.237,9.910991,2.764647,-0.165592
15.257,9.910882,2.76487,-0.164213
15.277,9.911004,2.76476,-0.163546
15.297,9.911315,2.764366,-0.163522
15.317,9.911537,2.763877,-0.164139
15.356,9.911988,2.763728,-0.164499
15.376,9.912241,2.763571,-0.164194
15.396,9.912158,2.763428,-0.163694
15.416,9.912212,2.763253,-0.163496
15.436,9.912655,2.763116,-0.163661
15.456,9.913156,2.762815,-0.163991
15.476,9.913341,2.762429,-0.164064
15.496,9.913338,2.762121,-0.163964
15.516,9.913412,2.76224,-0.163458
15.541,9.913873,2.762428,-0.163168
15.577,9.913846,2.761999,-0.162579
15.615,9.914145,2.761607,-0.162442
15.635,9.914521,2.761198,-0.1629
15.655,9.914883,2.760822,-0.163641
15.675,9.915189,2.760565,-0.163979
15.695,9.915201,2.760236,-0.163677
15.715,9.915308,2.759912,-0.163303
15.735,9.915504,2.75976,-0.162917
15.755,9.915853,2.759829,-0.162721
15.775,9.9162,2.759785,-0.162641
15.795,9.916385,2.759514,-0.162661
15.815,9.916555,2.759203,-0.162669
15.835,9.916717,2.758929,-0.162636
15.855,9.916962,2.758597,-0.162649
15.875,9.917247,2.758302,-0.162729
15.914,9.917353,2.758173,-0.162419
15.934,9.91748,2.758053,-0.162038
15.954,9.91767,2.757924,-0.16181
15.974,9.917886,2.75769,-0.161707
15.994,9.918065,2.757518,-0.16135
16.014,9.918253,2.757444,-0.160819
16.034,9.918497,2.757534,-0.160178
16.054,9.918723,2.757491,-0.159788
16.074,9.918847,2.757329,-0.159666
16.094,9.918927,2.757081,-0.15974
16.114,9.919006,2.756855,-0.1598
16.134,9.919331,2.75666,-0.159569
16.173,9.919422,2.756627,-0.158774
16.193,9.919745,2.756621,-0.158283
16.213,9.919928,2.756445,-0.15784
16.233,9.919988,2.75597,-0.157847
16.253,9.920217,2.755778,-0.157694
16.273,9.921332,2.7552,-0.157714
16.293,9.922478,2.753811,-0.156209
16.313,9.923139,2.752813,-0.152311
16.333,9.923385,2.751886,-0.148495
16.353,9.926308,2.750895,-0.148059
16.373,9.93533,2.753203,-0.147996
16.393,9.950579,2.760142,-0.145468
16.413,9.967183,2.769076,-0.139615
16.452,9.979197,2.775111,-0.134239
16.472,9.989719,2.780238,-0.131315
16.492,9.999261,2.785193,-0.129615
16.512,10.00708,2.789814,-0.127822
16.532,10.01125,2.792726,-0.125974
16.552,10.01166,2.79397,-0.12381
16.572,10.00949,2.794455,-0.119885
16.592,10.00479,2.794377,-0.114805
16.612,9.996844,2.793104,-0.108947
16.632,9.985801,2.790264,-0.10204
16.652,9.972102,2.785611,-0.095161
16.672,9.956184,2.779138,-0.090008
16.692,9.939739,2.77288,-0.084434
16.731,9.920952,2.766598,-0.076714
16.751,9.899653,2.759767,-0.069734
16.771,9.87579,2.752189,-0.06344
16.791,9.850469,2.743839,-0.057914
16.811,9.826659,2.736186,-0.052546
16.831,9.803264,2.728602,-0.047234
16.851,9.779672,2.720674,-0.042756
16.871,9.759031,2.714798,-0.037519
16.891,9.742682,2.712198,-0.029952
16.911,9.730247,2.712811,-0.021949
16.931,9.727833,2.718124,-0.015275
16.951,9.734614,2.729778,-0.006535
16.99,9.744565,2.741553,0.000787
17.01,9.757932,2.753438,0.005531
17.03,9.775048,2.76751,0.008981
17.05,9.794696,2.781251,0.011471
17.07,9.812596,2.792566,0.009994
17.09,9.828142,2.8005,0.006105
17.11,9.839201,2.80395,0.00125
17.13,9.847729,2.805633,-0.003819
17.15,9.857656,2.808584,-0.007772
17.17,9.8665,2.811824,-0.009191
17.19,9.902511,2.81935,-0.007516
17.21,9.923742,2.823551,-0.010167
17.23,9.935774,2.82845,-0.015302
17.25,9.927522,2.819968,-0.025152
17.289,9.915971,2.81532,-0.023633
17.309,9.911376,2.815759,-0.018521
17.329,9.913737,2.82099,-0.013173
17.349,9.916818,2.826549,-0.009591
17.369,9.916818,2.828839,-0.008228
17.389,9.916255,2.830104,-0.007747
17.409,9.918073,2.832515,-0.008356
17.429,9.918346,2.835131,-0.007909
17.449,9.916143,2.837264,-0.006319
17.469,9.914016,2.838682,-0.00521
17.489,9.913781,2.840576,-0.004696
17.509,9.914377,2.843014,-0.003761
17.529,9.915438,2.846124,-0.001043
17.568,9.91401,2.847871,0.001692
17.588,9.913231,2.848356,0.001875
17.608,9.911861,2.847898,0.001744
17.628,9.910673,2.847888,0.001715
17.648,9.911403,2.849153,0.001273
17.668,9.9144,2.850767,-0.000214
17.688,9.916081,2.852029,-0.000772
17.711,9.915175,2.853018,-0.00039
17.748,9.912931,2.853746,0.00002
17.768,9.913107,2.855824,0.000751
17.788,9.915658,2.858346,0.000688
17.808,9.917355,2.859889,0.000318
17.847,9.913956,2.85833,-0.000768
17.867,9.912289,2.858365,-0.00146
17.887,9.913421,2.860131,-0.002482
17.907,9.916726,2.86254,-0.003462
17.927,9.918249,2.864545,-0.002799
17.947,9.916675,2.865454,-0.001465
17.967,9.914553,2.864828,-0.001423
17.987,9.913341,2.865003,-0.001117
18.007,9.914164,2.865802,-0.001031
18.027,9.915825,2.867092,-0.000135
18.047,9.915693,2.868617,0.001744
18.067,9.914722,2.869212,0.002517
18.087,9.913431,2.86895,0.002277
18.126,9.914136,2.869146,0.001376
18.146,9.916244,2.870409,0.000026
18.166,9.91748,2.87073,-0.002188
18.186,9.917162,2.870342,-0.003854
18.206,9.916077,2.870289,-0.004332
18.226,9.915814,2.871297,-0.004
18.246,9.916772,2.872401,-0.003256
18.266,9.917535,2.873704,-0.002057
18.286,9.917729,2.874848,-0.000304
18.306,9.919494,2.875813,-0.000222
18.326,9.919988,2.875603,-0.001368
18.346,9.919901,2.873865,-0.002332
18.366,9.918489,2.873292,-0.000991
18.405,9.919176,2.874758,0.001179
18.425,9.92009,2.875866,0.003687
18.445,9.919534,2.876775,0.008017
18.465,9.91744,2.877794,0.013506
18.485,9.915284,2.878963,0.01941
18.505,9.914017,2.880728,0.025832
18.525,9.913077,2.882903,0.032633
18.545,9.912417,2.884954,0.038988
18.565,9.911853,2.886446,0.043958
18.585,9.911464,2.887686,0.047306
18.605,9.911682,2.888508,0.048879
18.625,9.912745,2.889252,0.049151
18.645,9.914431,2.88938,0.048994
18.684,9.914207,2.889521,0.050141
18.704,9.913957,2.890106,0.050666
18.724,9.915836,2.890999,0.050263
18.744,9.918605,2.891313,0.050331
18.764,9.919265,2.891243,0.052353
18.784,9.917996,2.890851,0.055749
18.804,9.917266,2.890526,0.058953
18.824,9.918738,2.890085,0.061191
18.844,9.92067,2.888861,0.06302
18.864,9.92143,2.888118,0.066033
18.884,9.921316,2.887026,0.068928
18.904,9.921361,2.885989,0.071817
18.924,9.922756,2.885309,0.073248
18.963,9.926188,2.884475,0.074596
18.983,9.927138,2.883644,0.078354
19.003,9.927292,2.88355,0.082004
19.023,9.929601,2.883411,0.084987
19.043,9.93351,2.884637,0.088653
19.063,9.933787,2.883598,0.093512
19.083,9.930709,2.881517,0.098184
19.103,9.928964,2.87922,0.101183
19.123,9.928522,2.878951,0.105732
19.143,9.929083,2.880414,0.11353
19.163,9.92836,2.88337,0.124678
19.183,9.926751,2.887053,0.138507
19.203,9.923644,2.890025,0.153346
19.242,9.917463,2.889594,0.166614
19.262,9.911721,2.889926,0.181432
19.282,9.910158,2.893049,0.199972
19.302,9.909734,2.898524,0.222955
19.322,9.903315,2.902089,0.249575
19.342,9.892024,2.903681,0.277535
19.362,9.882006,2.904111,0.304475
19.382,9.874824,2.905025,0.330446
19.402,9.867839,2.905712,0.356144
19.422,9.8595,2.905268,0.382071
19.442,9.851752,2.905363,0.410546
19.462,9.844383,2.905882,0.44172
19.501,9.835175,2.906373,0.47444
19.521,9.825356,2.907661,0.512646
19.541,9.81482,2.908379,0.552586
19.561,9.805264,2.908829,0.59137
19.581,9.795222,2.910119,0.632491
19.601,9.782181,2.911119,0.680322
19.621,9.767962,2.912958,0.734991
19.641,9.751586,2.913284,0.790858
19.661,9.730681,2.911043,0.846021
19.681,9.709621,2.906869,0.894911
19.701,9.692162,2.902608,0.939915
19.721,9.670586,2.896984,0.987698
19.741,9.64381,2.891016,1.038505
19.78,9.617593,2.886312,1.101348
19.8,9.59399,2.882162,1.162394
19.82,9.564128,2.877401,1.225168
19.84,9.525075,2.869759,1.289922
19.86,9.487336,2.862644,1.358372
19.883,9.443638,2.862564,1.45997
19.922,9.384993,2.85553,1.55947
19.96,9.331398,2.848001,1.650683
19.98,9.282036,2.841545,1.743886
20,9.230444,2.837271,1.836253
20.02,9.174097,2.832446,1.936579
20.059,9.114007,2.824912,2.036957
20.079,9.058118,2.817356,2.128378
20.099,8.993623,2.807857,2.230334
20.119,8.923183,2.798937,2.327634
20.139,8.852863,2.78801,2.416864
20.159,8.782627,2.779743,2.51832
20.179,8.707077,2.770941,2.629501
20.199,8.628041,2.760842,2.742481
20.219,8.547273,2.752302,2.856586
20.239,8.468045,2.735463,2.987059
20.259,8.401768,2.72162,3.087125
20.279,8.318928,2.717802,3.24238
20.318,8.209138,2.724932,3.337889
20.338,8.097631,2.726061,3.414143
20.358,7.994384,2.721789,3.513031
20.378,7.882686,2.711134,3.636531
20.398,7.770115,2.701618,3.761285
20.418,7.649322,2.696337,3.901241
20.438,7.539968,2.691623,4.017659
20.458,7.421868,2.685346,4.131742
20.478,7.291824,2.676649,4.240666
20.498,7.164101,2.664969,4.328915
20.518,7.035375,2.652601,4.44236
20.538,6.899175,2.640893,4.566794
20.558,6.760601,2.631603,4.67693
20.597,6.622459,2.61734,4.778872
20.617,6.481739,2.603063,4.874347
20.637,6.347125,2.58721,4.978033
20.657,6.215706,2.574258,5.082818
20.677,6.075447,2.559027,5.190786
20.697,5.933215,2.54567,5.293945
20.717,5.797501,2.532773,5.402591
20.737,5.658464,2.520099,5.500425
20.757,5.531615,2.499751,5.559288
20.777,5.3965,2.486016,5.675589
20.797,5.261824,2.47501,5.783085
20.817,5.14924,2.461651,5.873675
20.837,5.025898,2.44883,5.972074
20.876,4.902134,2.436749,6.075861
20.896,4.779939,2.426391,6.190919
20.916,4.659337,2.417136,6.307402
20.936,4.547676,2.405712,6.410137
20.956,4.440716,2.393535,6.497791
20.976,4.338664,2.380812,6.57725
20.996,4.239762,2.367955,6.665309
21.016,4.149774,2.353464,6.761279
21.036,4.066596,2.336437,6.853244
21.056,3.989119,2.318959,6.940045
21.076,3.904114,2.307224,7.043784
21.096,3.816608,2.292648,7.128689
21.135,3.733292,2.273373,7.229838
21.155,3.65797,2.256092,7.290992
21.175,3.573005,2.241137,7.34731
21.195,3.47527,2.22486,7.421899
21.215,3.39677,2.210876,7.512011
21.235,3.316099,2.196739,7.588861
21.255,3.239621,2.182486,7.652777
21.275,3.171535,2.172126,7.705521
21.295,3.110764,2.165341,7.774498
21.315,3.052895,2.157906,7.840664
21.335,2.993124,2.148044,7.890139
21.355,2.955918,2.13856,7.91518
21.375,2.890198,2.125911,7.943659
21.414,2.807378,2.12237,8.003627
21.434,2.714658,2.121779,8.076392
21.465,2.624215,2.125578,8.139557
21.494,2.547195,2.125774,8.177904
21.514,2.468923,2.123901,8.220355
21.534,2.392116,2.121328,8.272276
21.554,2.317861,2.119121,8.331121
21.574,2.251848,2.116831,8.387063
21.594,2.189406,2.112532,8.438981
21.614,2.12676,2.10483,8.472211
21.634,2.063294,2.095303,8.501044
21.654,2.006356,2.085715,8.542093
21.693,1.960037,2.075096,8.580435
21.713,1.917227,2.063446,8.613133
21.733,1.879256,2.051976,8.652908
21.753,1.838677,2.040653,8.692816
21.773,1.796633,2.030442,8.73877
21.793,1.754312,2.020143,8.779794
21.813,1.712821,2.009913,8.82464
21.833,1.671739,1.999266,8.864132
21.853,1.629652,1.988992,8.897211
21.873,1.58575,1.978272,8.926707
21.893,1.541787,1.966114,8.95457
21.913,1.500372,1.954564,8.980565
21.933,1.458597,1.943888,9.007326
21.972,1.418579,1.93403,9.036962
21.992,1.380659,1.924171,9.066205
22.012,1.342449,1.914842,9.097474
22.032,1.304944,1.904247,9.131964
22.052,1.266106,1.892567,9.162417
22.072,1.230503,1.880545,9.184118
