gyro_time_list,gyro_x_list,gyro_y_list,gyro_z_list
0.291,0.04803,-0.018586,0.123705
0.311,0.156463,-0.060597,0.208697
0.331,0.14707,-0.102699,0.299782
0.351,0.242942,-0.109502,0.364261
0.371,0.280202,-0.20125,0.386559
0.391,0.318388,-0.331165,0.413025
0.411,0.365047,-0.443828,0.448233
0.431,0.411352,-0.566288,0.485327
0.47,0.316089,-0.552866,0.508273
0.49,0.211151,-0.52032,0.519597
0.51,0.104449,-0.49348,0.527521
0.53,0.0493,-0.501457,0.528535
0.55,0.021299,-0.520683,0.520304
0.57,0.039368,-0.535731,0.507714
0.59,0.024905,-0.483818,0.486041
0.61,-0.018845,-0.437485,0.485539
0.63,-0.076606,-0.386714,0.492035
0.65,-0.142591,-0.321836,0.508725
0.67,-0.183456,-0.275983,0.539387
0.69,-0.135344,-0.375125,0.57945
0.71,-0.041757,-0.511049,0.614492
0.749,-0.008302,-0.576869,0.656263
0.769,-0.029286,-0.606878,0.666996
0.789,-0.08207,-0.605188,0.644004
0.809,-0.12499,-0.547984,0.615651
0.829,-0.163995,-0.47759,0.611167
0.849,-0.252495,-0.444969,0.632459
0.869,-0.327443,-0.444563,0.65502
0.889,-0.394453,-0.447933,0.677089
0.909,-0.463852,-0.440577,0.712384
0.929,-0.549734,-0.385406,0.757277
0.949,-0.63836,-0.294018,0.778992
0.969,-0.714836,-0.301289,0.712058
0.989,-0.704679,-0.405886,0.720029
1.028,-0.649966,-0.505751,0.768082
1.048,-0.612549,-0.562657,0.787705
1.068,-0.603034,-0.568698,0.783916
1.088,-0.61634,-0.539177,0.7703
1.108,-0.67033,-0.472215,0.757317
1.128,-0.771015,-0.359947,0.741924
1.148,-0.892791,-0.213227,0.686141
1.168,-1.007395,-0.142302,0.63484
1.188,-1.096056,-0.121976,0.601335
1.208,-1.139033,-0.131161,0.578781
1.228,-1.171332,-0.142331,0.558341
1.248,-1.193753,-0.139534,0.528412
1.268,-1.222857,-0.131622,0.494966
1.307,-1.239896,-0.143618,0.46969
1.327,-1.266218,-0.154303,0.448029
1.347,-1.279479,-0.190029,0.424019
1.367,-1.26596,-0.247443,0.398016
1.387,-1.240077,-0.300578,0.378605
1.407,-1.203377,-0.353905,0.363868
1.427,-1.164417,-0.403906,0.34541
1.447,-1.147166,-0.428112,0.33029
1.467,-1.141795,-0.433334,0.320628
1.487,-1.140685,-0.422151,0.313943
1.507,-1.131778,-0.411237,0.307671
1.527,-1.11221,-0.405739,0.296387
1.547,-1.093365,-0.38914,0.281158
1.586,-1.061953,-0.375012,0.267875
1.606,-1.027073,-0.362763,0.254439
1.626,-0.999489,-0.34735,0.23847
1.646,-0.989586,-0.322055,0.222624
1.666,-0.986686,-0.30219,0.213822
1.686,-0.994409,-0.28243,0.207257
1.706,-1.00101,-0.266168,0.20397
1.726,-0.97779,-0.264792,0.21141
1.746,-0.937025,-0.282861,0.211974
1.766,-0.90182,-0.295946,0.205986
1.786,-0.877452,-0.294,0.199856
1.806,-0.862636,-0.279357,0.194812
1.845,-0.846358,-0.250308,0.187441
1.865,-0.818567,-0.231376,0.177917
1.885,-0.790574,-0.219805,0.169853
1.905,-0.764977,-0.210516,0.165831
1.925,-0.74054,-0.200753,0.16332
1.945,-0.717489,-0.190709,0.158767
1.965,-0.692976,-0.180883,0.151982
1.985,-0.668903,-0.170248,0.144004
2.005,-0.650561,-0.155744,0.136981
2.025,-0.634698,-0.144093,0.134335
2.045,-0.616267,-0.137622,0.135945
2.065,-0.594626,-0.135467,0.138553
2.085,-0.573114,-0.134279,0.138878
2.124,-0.560243,-0.125796,0.133543
2.144,-0.552699,-0.114749,0.128002
2.164,-0.545136,-0.104333,0.123559
2.184,-0.534617,-0.094709,0.120613
2.204,-0.521111,-0.091534,0.118933
2.224,-0.509721,-0.087462,0.116882
2.244,-0.50355,-0.077336,0.112305
2.264,-0.499383,-0.063643,0.107724
2.284,-0.493529,-0.05341,0.103466
2.304,-0.487955,-0.045615,0.098848
2.324,-0.482583,-0.03866,0.09387
2.344,-0.477963,-0.028972,0.089139
2.364,-0.474925,-0.016601,0.084699
2.403,-0.47227,0.000253,0.079316
2.423,-0.46913,0.018701,0.073174
2.449,-0.465618,0.037917,0.066029
2.483,-0.46162,0.061718,0.059951
2.503,-0.451888,0.083093,0.059445
2.523,-0.44438,0.107839,0.057587
2.543,-0.440524,0.135422,0.053929
2.563,-0.434533,0.159543,0.051436
2.583,-0.425307,0.177192,0.05144
2.603,-0.406464,0.196377,0.057144
2.623,-0.385222,0.201225,0.063447
2.662,-0.361387,0.19828,0.071397
2.682,-0.338847,0.198957,0.077649
2.702,-0.322096,0.205059,0.079072
2.722,-0.310597,0.211686,0.076151
2.742,-0.299357,0.218721,0.070965
2.762,-0.287234,0.225404,0.064364
2.782,-0.273515,0.234708,0.060094
2.802,-0.260951,0.242497,0.056626
2.822,-0.253412,0.249107,0.053991
2.842,-0.248596,0.254003,0.051571
2.862,-0.239845,0.252334,0.050825
2.882,-0.229108,0.247622,0.049876
2.921,-0.226262,0.247735,0.045701
2.941,-0.226314,0.24997,0.04173
2.961,-0.22811,0.251772,0.03886
2.981,-0.22596,0.251019,0.039201
3.001,-0.218448,0.246221,0.043268
3.021,-0.211532,0.237612,0.045873
3.041,-0.206409,0.227609,0.047425
3.061,-0.205079,0.22182,0.047767
3.081,-0.201794,0.217654,0.04774
3.101,-0.197016,0.213486,0.047721
3.121,-0.190269,0.206059,0.048466
3.141,-0.183862,0.196822,0.050185
3.161,-0.181179,0.191192,0.051071
3.2,-0.18202,0.188787,0.049648
3.22,-0.180968,0.186758,0.048485
3.24,-0.178959,0.18352,0.047912
3.26,-0.176546,0.179422,0.047992
3.28,-0.174605,0.176414,0.047807
3.3,-0.172584,0.172276,0.04859
3.32,-0.169448,0.167416,0.049116
3.34,-0.166757,0.165269,0.048211
3.36,-0.164926,0.164871,0.046546
3.38,-0.162125,0.162295,0.045642
3.4,-0.159221,0.157989,0.045298
3.42,-0.158829,0.157584,0.043628
3.44,-0.158212,0.157221,0.04433
3.479,-0.155822,0.155573,0.044722
3.499,-0.153344,0.15565,0.04372
3.519,-0.15129,0.155982,0.042183
3.539,-0.149785,0.156022,0.04123
3.559,-0.145661,0.149012,0.042543
3.579,-0.147184,0.150311,0.041556
3.599,-0.146279,0.148496,0.042201
3.619,-0.144598,0.144457,0.043941
3.639,-0.143358,0.141796,0.044546
3.659,-0.142084,0.139334,0.044411
3.679,-0.140561,0.137094,0.0439
3.699,-0.139391,0.134985,0.043568
3.719,-0.138601,0.132793,0.043301
3.758,-0.137524,0.129567,0.04311
3.778,-0.136919,0.125904,0.042909
3.798,-0.136391,0.119949,0.043359
3.818,-0.13579,0.112239,0.044188
3.838,-0.135223,0.102475,0.045044
3.858,-0.13463,0.091338,0.045918
3.878,-0.132706,0.078092,0.04666
3.898,-0.129126,0.059555,0.04724
3.918,-0.125149,0.034707,0.047245
3.938,-0.122123,0.00959,0.047631
3.958,-0.119602,-0.012638,0.048827
3.978,-0.117789,-0.033892,0.050452
3.998,-0.117453,-0.054543,0.052492
4.037,-0.116358,-0.075081,0.054502
4.057,-0.113851,-0.095374,0.056799
4.077,-0.110971,-0.112392,0.058906
4.097,-0.109002,-0.124354,0.060527
4.117,-0.108071,-0.131341,0.061737
4.137,-0.108448,-0.134055,0.062119
4.157,-0.108722,-0.134529,0.061803
4.177,-0.108431,-0.133712,0.060962
4.197,-0.107811,-0.132633,0.059975
4.217,-0.10654,-0.132092,0.059443
4.237,-0.104939,-0.132903,0.058904
4.257,-0.103637,-0.134569,0.058379
4.277,-0.102762,-0.135138,0.05799
4.316,-0.102681,-0.132422,0.057514
4.336,-0.101631,-0.131026,0.057077
4.356,-0.099987,-0.130103,0.056176
4.376,-0.098609,-0.127511,0.054452
4.396,-0.099107,-0.122453,0.052483
4.416,-0.099716,-0.116678,0.050322
4.436,-0.099538,-0.110728,0.04723
4.456,-0.099924,-0.104686,0.044234
4.476,-0.100084,-0.100681,0.042784
4.496,-0.099212,-0.098413,0.042012
4.516,-0.098247,-0.096221,0.041284
4.536,-0.098072,-0.09232,0.039998
4.556,-0.098488,-0.088097,0.038663
4.595,-0.099812,-0.084337,0.038125
4.621,-0.100299,-0.082072,0.038115
4.657,-0.099589,-0.080184,0.037414
4.695,-0.098894,-0.078228,0.03657
4.715,-0.098323,-0.076973,0.03621
4.735,-0.097765,-0.076636,0.035892
4.755,-0.097709,-0.076546,0.035704
4.775,-0.09748,-0.075984,0.035466
4.795,-0.097178,-0.075043,0.035099
4.815,-0.096659,-0.074609,0.035126
4.835,-0.09583,-0.074325,0.035212
4.874,-0.095295,-0.073768,0.034792
4.894,-0.094959,-0.073281,0.034459
4.914,-0.094595,-0.072627,0.034148
4.934,-0.094308,-0.071435,0.033721
4.954,-0.093718,-0.069757,0.033139
4.974,-0.093387,-0.067867,0.032449
4.994,-0.093405,-0.06607,0.031955
5.014,-0.093857,-0.06447,0.031874
5.034,-0.094459,-0.063546,0.032013
5.054,-0.095141,-0.062773,0.032002
5.074,-0.095801,-0.061961,0.031994
5.094,-0.096893,-0.060207,0.032054
5.133,-0.096695,-0.057997,0.031699
5.153,-0.095662,-0.056824,0.031223
5.173,-0.094765,-0.056074,0.03073
5.193,-0.094297,-0.055505,0.030337
5.213,-0.093836,-0.055352,0.030038
5.233,-0.093505,-0.054732,0.029752
5.253,-0.093181,-0.053998,0.029488
5.273,-0.092796,-0.05367,0.029306
5.293,-0.092322,-0.05341,0.029038
5.313,-0.092099,-0.052821,0.028766
5.333,-0.091949,-0.052028,0.028481
5.353,-0.091654,-0.051144,0.028132
5.373,-0.091286,-0.050441,0.027775
5.412,-0.090887,-0.050249,0.027601
5.432,-0.090592,-0.049839,0.027428
5.452,-0.090396,-0.049689,0.027271
5.472,-0.090193,-0.049356,0.027069
5.492,-0.089921,-0.048708,0.026906
5.512,-0.089555,-0.048328,0.026702
5.532,-0.089186,-0.047805,0.026405
5.552,-0.088648,-0.046951,0.026096
5.572,-0.088271,-0.046453,0.025862
5.592,-0.088032,-0.04613,0.025737
5.612,-0.087937,-0.045598,0.025579
5.632,-0.087738,-0.04491,0.025389
5.652,-0.087476,-0.044021,0.025142
5.691,-0.087333,-0.043121,0.024903
5.711,-0.08715,-0.042696,0.024702
5.731,-0.086784,-0.042357,0.024496
5.751,-0.086507,-0.041968,0.024322
5.771,-0.086284,-0.041463,0.024169
5.791,-0.085992,-0.040841,0.023972
5.811,-0.085715,-0.04037,0.023815
5.831,-0.085406,-0.03984,0.023641
5.851,-0.085223,-0.039376,0.023558
5.871,-0.085118,-0.038945,0.023436
5.891,-0.084896,-0.038413,0.023181
5.911,-0.084619,-0.037751,0.022885
5.95,-0.084267,-0.037454,0.022491
5.97,-0.084067,-0.036863,0.022089
5.99,-0.083854,-0.03618,0.021658
6.01,-0.083496,-0.035636,0.021515
6.03,-0.083187,-0.035532,0.021684
6.05,-0.082808,-0.035619,0.021694
6.07,-0.082531,-0.035599,0.021589
6.09,-0.082401,-0.035165,0.021399
6.11,-0.082265,-0.034317,0.021062
6.13,-0.082106,-0.033001,0.020702
6.15,-0.081911,-0.032138,0.020514
6.17,-0.081692,-0.03184,0.020454
6.19,-0.081337,-0.031895,0.020378
6.229,-0.081175,-0.031771,0.020346
6.249,-0.081049,-0.031392,0.020231
6.269,-0.080892,-0.030666,0.019913
6.289,-0.080744,-0.029821,0.019528
6.309,-0.080687,-0.029346,0.019307
6.329,-0.080491,-0.029147,0.019156
6.349,-0.08027,-0.029095,0.019085
6.369,-0.080004,-0.028925,0.018988
6.389,-0.079693,-0.028719,0.018864
6.409,-0.079382,-0.028413,0.018709
6.429,-0.079145,-0.028025,0.018534
6.449,-0.079019,-0.027646,0.018343
6.469,-0.078864,-0.027275,0.018152
6.508,-0.078661,-0.026907,0.017992
6.528,-0.078436,-0.026826,0.017909
6.548,-0.078249,-0.026911,0.017872
6.568,-0.078047,-0.026997,0.017837
6.588,-0.077781,-0.02699,0.017772
6.608,-0.077612,-0.026869,0.01772
6.628,-0.077372,-0.026632,0.017654
6.648,-0.077176,-0.026286,0.017478
6.668,-0.077065,-0.025983,0.017271
6.688,-0.077015,-0.025777,0.017105
6.708,-0.076865,-0.025582,0.016992
6.728,-0.076561,-0.025488,0.016898
6.767,-0.076148,-0.025292,0.016777
6.787,-0.075731,-0.02498,0.016616
6.811,-0.075492,-0.02461,0.016381
6.848,-0.075284,-0.024275,0.016168
6.887,-0.075172,-0.024193,0.016127
6.907,-0.07503,-0.024132,0.016106
6.927,-0.074848,-0.02399,0.016043
6.947,-0.074723,-0.023688,0.01595
6.967,-0.074442,-0.023369,0.015852
6.987,-0.074146,-0.023103,0.015675
7.007,-0.07389,-0.022878,0.015533
7.046,-0.073714,-0.022743,0.015506
7.066,-0.073688,-0.022387,0.015366
7.086,-0.073553,-0.022165,0.015223
7.106,-0.073343,-0.022108,0.015155
7.126,-0.07324,-0.021817,0.015068
7.147,-0.073126,-0.021523,0.014911
7.186,-0.073077,-0.021132,0.014782
7.206,-0.073003,-0.020883,0.014747
7.226,-0.072942,-0.020602,0.014596
7.246,-0.072883,-0.020257,0.014575
7.266,-0.072695,-0.020152,0.014587
7.305,-0.072575,-0.019992,0.014517
7.325,-0.072359,-0.020041,0.014521
7.345,-0.072137,-0.019948,0.014522
7.365,-0.072047,-0.019643,0.014447
7.385,-0.072177,-0.018729,0.014191
7.405,-0.072028,-0.017943,0.014018
7.425,-0.071983,-0.017273,0.013907
7.445,-0.07197,-0.016764,0.013814
7.465,-0.071965,-0.016794,0.013865
7.485,-0.071758,-0.017086,0.013922
7.505,-0.07146,-0.0174,0.013992
7.525,-0.071103,-0.017565,0.014069
7.545,-0.070902,-0.017464,0.014115
7.584,-0.070849,-0.017127,0.013952
7.604,-0.070735,-0.01691,0.013812
7.624,-0.070623,-0.016774,0.013698
7.644,-0.070554,-0.016604,0.013627
7.664,-0.070464,-0.016497,0.013621
7.684,-0.070347,-0.016343,0.013565
7.704,-0.070408,-0.016208,0.013489
7.724,-0.070438,-0.016108,0.013458
7.744,-0.070517,-0.015702,0.013437
7.764,-0.070652,-0.014979,0.013451
7.784,-0.070653,-0.014669,0.013269
7.804,-0.070789,-0.014256,0.01308
7.824,-0.071117,-0.013549,0.01288
7.863,-0.071045,-0.013295,0.012806
7.883,-0.07102,-0.013036,0.012655
7.903,-0.071162,-0.012499,0.012442
7.923,-0.071339,-0.011896,0.012159
7.943,-0.071341,-0.011403,0.011894
7.963,-0.071226,-0.011045,0.011713
7.983,-0.071091,-0.010741,0.011534
8.003,-0.070987,-0.010422,0.011406
8.023,-0.070833,-0.0102,0.011258
8.043,-0.070606,-0.009981,0.01109
8.063,-0.070474,-0.009711,0.010895
8.083,-0.070377,-0.009424,0.010714
8.103,-0.070154,-0.009335,0.010652
8.142,-0.069996,-0.009086,0.010546
8.162,-0.069954,-0.008694,0.010345
8.182,-0.069789,-0.0084,0.010113
8.202,-0.069514,-0.008241,0.00987
8.222,-0.069248,-0.008025,0.00966
8.242,-0.069042,-0.007846,0.009524
8.262,-0.068913,-0.007575,0.009456
8.282,-0.068882,-0.007159,0.009354
8.302,-0.068806,-0.006861,0.009215
8.322,-0.0687,-0.006628,0.009042
8.342,-0.068563,-0.006493,0.008935
8.362,-0.068406,-0.00654,0.008926
8.382,-0.068182,-0.006621,0.008961
8.421,-0.06796,-0.006541,0.008906
8.441,-0.067774,-0.006517,0.00883
8.461,-0.06765,-0.00638,0.00871
8.481,-0.067638,-0.006174,0.008588
8.501,-0.067533,-0.006044,0.008419
8.521,-0.067391,-0.005942,0.008274
8.541,-0.067171,-0.005996,0.008256
8.561,-0.066914,-0.006139,0.00822
8.581,-0.066734,-0.006139,0.008221
8.601,-0.066668,-0.005891,0.008091
8.621,-0.066631,-0.005557,0.00785
8.641,-0.066507,-0.005358,0.007685
8.68,-0.066327,-0.005351,0.007637
8.7,-0.066187,-0.005183,0.007541
8.72,-0.066074,-0.004918,0.007327
8.74,-0.065964,-0.004552,0.00714
8.76,-0.065866,-0.004182,0.007003
8.78,-0.065667,-0.003937,0.006898
8.8,-0.065446,-0.003939,0.006901
8.82,-0.065281,-0.003823,0.006904
8.84,-0.065247,-0.003736,0.006925
8.86,-0.065284,-0.003729,0.006942
8.88,-0.065367,-0.003679,0.006931
8.9,-0.065293,-0.003634,0.006964
8.92,-0.065119,-0.003634,0.006973
8.959,-0.065003,-0.003517,0.006884
8.979,-0.06492,-0.003367,0.006865
8.999,-0.064846,-0.003307,0.006874
9.024,-0.064709,-0.003271,0.006772
9.059,-0.064555,-0.003294,0.006763
9.079,-0.06428,-0.003386,0.006717
9.099,-0.064116,-0.003311,0.006487
9.12,-0.064136,-0.002885,0.006133
9.159,-0.064134,-0.002662,0.006134
9.179,-0.063955,-0.002835,0.006307
9.199,-0.06378,-0.003026,0.006428
9.238,-0.063709,-0.00286,0.00625
9.258,-0.063619,-0.002711,0.006066
9.278,-0.06346,-0.002672,0.005925
9.298,-0.063332,-0.002572,0.005863
9.318,-0.063239,-0.002386,0.005732
9.338,-0.063099,-0.002233,0.005575
9.358,-0.062992,-0.002055,0.005462
9.378,-0.062851,-0.001943,0.00534
9.398,-0.062728,-0.001842,0.005252
9.418,-0.062673,-0.001668,0.005227
9.438,-0.062539,-0.001606,0.005165
9.458,-0.0624,-0.001622,0.005085
9.478,-0.062309,-0.001527,0.00501
9.517,-0.062222,-0.001363,0.004877
9.537,-0.062064,-0.001188,0.004817
9.557,-0.061916,-0.001089,0.004762
9.577,-0.061816,-0.001068,0.004755
9.597,-0.061701,-0.001131,0.004793
9.617,-0.061555,-0.001246,0.004787
9.637,-0.061508,-0.001135,0.004677
9.657,-0.06149,-0.000855,0.004488
9.677,-0.061386,-0.00067,0.004318
9.697,-0.061227,-0.000544,0.004175
9.717,-0.061099,-0.000411,0.00407
9.737,-0.061003,-0.000273,0.003942
9.757,-0.06091,-0.00018,0.003836
9.796,-0.060834,-0.000069,0.003764
9.816,-0.060758,0.000019,0.003712
9.836,-0.060653,0.000089,0.00366
9.856,-0.060548,0.000149,0.003587
9.876,-0.060473,0.00025,0.003519
9.896,-0.060401,0.000274,0.003516
9.916,-0.060269,0.000301,0.003532
9.936,-0.060165,0.000334,0.003551
9.956,-0.060052,0.000401,0.003512
9.976,-0.059983,0.000479,0.003474
9.996,-0.059917,0.000448,0.003467
10.016,-0.059834,0.000439,0.003428
10.036,-0.059786,0.000526,0.003417
10.075,-0.059596,0.000378,0.003455
10.095,-0.059471,0.000356,0.003426
10.115,-0.059432,0.000451,0.003308
10.135,-0.059456,0.000549,0.003263
10.155,-0.05948,0.000562,0.0033
10.175,-0.059391,0.000496,0.003378
10.195,-0.059209,0.000428,0.003455
10.215,-0.059103,0.000577,0.003464
10.235,-0.059048,0.000903,0.003416
10.255,-0.058902,0.001085,0.003345
10.275,-0.058805,0.001209,0.003286
10.295,-0.058781,0.001357,0.003247
10.315,-0.058702,0.001413,0.003243
10.354,-0.058542,0.001529,0.003234
10.374,-0.058399,0.001825,0.003194
10.394,-0.058284,0.002306,0.003065
10.414,-0.058252,0.002851,0.003014
10.434,-0.058106,0.003218,0.003086
10.454,-0.057844,0.003685,0.003176
10.474,-0.057938,0.00474,0.003067
10.494,-0.0587,0.007274,0.002572
10.514,-0.059356,0.01005,0.001843
10.534,-0.059608,0.01254,0.001045
10.554,-0.05964,0.014775,0.000264
10.574,-0.059939,0.017087,-0.000455
10.594,-0.060963,0.020316,-0.001119
10.633,-0.061402,0.022628,-0.001332
10.653,-0.061543,0.02465,-0.001568
10.673,-0.06161,0.026476,-0.001878
10.693,-0.061467,0.027606,-0.002058
10.713,-0.061041,0.027747,-0.001927
10.733,-0.060622,0.027189,-0.001592
10.753,-0.060496,0.026441,-0.001261
10.773,-0.060531,0.025706,-0.000979
10.793,-0.060289,0.02452,-0.000642
10.813,-0.059993,0.023126,-0.000385
10.833,-0.060166,0.022619,-0.000384
10.853,-0.060391,0.022462,-0.000478
10.873,-0.060278,0.022291,-0.000509
10.912,-0.059918,0.022336,-0.000584
10.932,-0.059636,0.022336,-0.000711
10.952,-0.059687,0.022644,-0.000903
10.972,-0.059874,0.023052,-0.001112
10.992,-0.059867,0.022948,-0.001096
11.012,-0.059617,0.022404,-0.000895
11.032,-0.059395,0.021902,-0.000753
11.052,-0.059244,0.021445,-0.000636
11.072,-0.058974,0.020578,-0.000449
11.092,-0.05892,0.020197,-0.000398
11.112,-0.059035,0.020426,-0.000502
11.132,-0.058843,0.020201,-0.000479
11.152,-0.058498,0.019926,-0.000391
11.191,-0.058375,0.019988,-0.000397
11.214,-0.058382,0.020137,-0.000481
11.251,-0.058248,0.019914,-0.000435
11.275,-0.058056,0.019537,-0.00027
11.311,-0.058008,0.019406,-0.000197
11.331,-0.057919,0.019285,-0.000226
11.351,-0.057848,0.019243,-0.000271
11.371,-0.057712,0.019134,-0.000279
11.391,-0.057492,0.018758,-0.000189
11.411,-0.057398,0.018578,-0.000133
11.45,-0.057317,0.018562,-0.000155
11.47,-0.057161,0.018485,-0.000222
11.49,-0.05705,0.018582,-0.000297
11.51,-0.056945,0.018533,-0.000341
11.53,-0.056777,0.018316,-0.00035
11.55,-0.056721,0.018251,-0.000373
11.57,-0.056699,0.018219,-0.000441
11.59,-0.056586,0.018073,-0.000458
11.61,-0.056409,0.01782,-0.00043
11.63,-0.056269,0.017597,-0.000379
11.65,-0.056271,0.01754,-0.000307
11.67,-0.056255,0.017498,-0.000268
11.69,-0.056133,0.017333,-0.000216
11.729,-0.056019,0.017335,-0.000251
11.749,-0.055891,0.017256,-0.000254
11.769,-0.055744,0.017138,-0.000254
11.789,-0.055665,0.017145,-0.000225
11.809,-0.055661,0.017104,-0.000166
11.829,-0.055551,0.016918,-0.000114
11.849,-0.055447,0.016795,-0.000121
11.869,-0.055415,0.016796,-0.000159
11.889,-0.055307,0.016631,-0.000107
11.909,-0.05519,0.016465,-0.000018
11.929,-0.055131,0.016428,0.000092
11.949,-0.055029,0.016368,0.000164
11.969,-0.054943,0.016373,0.000114
12.008,-0.054942,0.016547,0.000028
12.028,-0.054817,0.016499,0.000074
12.048,-0.05465,0.016292,0.000183
12.068,-0.054549,0.016066,0.000212
12.088,-0.054547,0.015941,0.000143
12.108,-0.05459,0.015891,0.000034
12.128,-0.054509,0.015747,0.000021
12.148,-0.054332,0.015552,0.00005
12.168,-0.05421,0.015555,-0.000016
12.188,-0.054192,0.0157,-0.00008
12.208,-0.054173,0.015788,-0.000122
12.228,-0.054077,0.015708,-0.000129
12.248,-0.054054,0.015637,-0.000114
12.287,-0.053975,0.015475,-0.000061
12.307,-0.053895,0.015391,-0.000086
12.327,-0.053815,0.015353,-0.00013
12.347,-0.053739,0.015358,-0.000185
12.367,-0.053612,0.015345,-0.000228
12.387,-0.053532,0.015409,-0.000249
12.407,-0.053489,0.015469,-0.000256
12.427,-0.053446,0.01544,-0.000215
12.447,-0.053372,0.015317,-0.000137
12.467,-0.053291,0.015219,-0.000122
12.487,-0.05322,0.015222,-0.000186
12.507,-0.053146,0.015305,-0.000317
12.527,-0.053025,0.015367,-0.000379
12.547,-0.052891,0.01537,-0.000385
12.586,-0.05282,0.015409,-0.000364
12.606,-0.052761,0.015454,-0.00036
12.626,-0.052674,0.015451,-0.000332
12.646,-0.052637,0.015436,-0.000301
12.666,-0.052574,0.015344,-0.000257
12.686,-0.052493,0.015243,-0.000261
12.706,-0.052439,0.015272,-0.000334
12.726,-0.052401,0.01527,-0.000465
12.746,-0.05237,0.01521,-0.000539
12.766,-0.052324,0.0151,-0.000483
12.786,-0.052233,0.014882,-0.00035
12.806,-0.052131,0.014592,-0.000259
12.826,-0.052057,0.014358,-0.00026
12.865,-0.051993,0.014104,-0.000076
12.885,-0.051779,0.013732,0.000139
12.905,-0.051599,0.013551,0.000195
12.925,-0.051514,0.013547,0.000121
12.945,-0.051488,0.01361,0.000099
12.965,-0.051377,0.013536,0.000215
12.985,-0.051199,0.013295,0.000339
13.005,-0.051075,0.01319,0.000335
13.025,-0.050974,0.013212,0.000246
13.045,-0.050814,0.013234,0.000161
13.065,-0.050718,0.013316,0.000033
13.085,-0.050689,0.013447,-0.000104
13.105,-0.050635,0.01345,-0.000145
13.144,-0.050489,0.013074,-0.000075
13.164,-0.050375,0.012765,-0.000047
13.184,-0.050305,0.012578,-0.000051
13.204,-0.050248,0.012482,-0.000065
13.224,-0.050156,0.012426,-0.000096
13.244,-0.050044,0.012424,-0.000115
13.264,-0.049909,0.012414,-0.000122
13.284,-0.049752,0.012406,-0.000124
13.304,-0.04966,0.012454,-0.000154
13.324,-0.049578,0.012491,-0.000198
13.344,-0.049472,0.012448,-0.000217
13.364,-0.049356,0.012313,-0.000203
13.387,-0.049261,0.012239,-0.000209
13.423,-0.049167,0.012277,-0.000226
13.443,-0.049051,0.012327,-0.000251
13.463,-0.048951,0.012356,-0.000282
13.483,-0.048893,0.012387,-0.000288
13.503,-0.048822,0.012417,-0.000255
13.523,-0.048708,0.012483,-0.000235
13.543,-0.048585,0.012612,-0.00028
13.563,-0.048517,0.01269,-0.000351
13.583,-0.048494,0.012683,-0.000398
13.603,-0.048467,0.012628,-0.000425
13.623,-0.048438,0.012611,-0.000463
13.643,-0.04838,0.01259,-0.000528
13.663,-0.048311,0.012588,-0.000601
13.702,-0.048335,0.012764,-0.000761
13.722,-0.048277,0.01294,-0.000914
13.742,-0.048183,0.013099,-0.00102
13.762,-0.048114,0.013176,-0.001073
13.782,-0.048108,0.013146,-0.001087
13.802,-0.048156,0.013051,-0.001083
13.822,-0.048209,0.012941,-0.001077
13.842,-0.048214,0.012835,-0.001092
13.862,-0.048197,0.012772,-0.001118
13.882,-0.048165,0.012784,-0.001172
13.902,-0.048121,0.012815,-0.001264
13.922,-0.048106,0.012918,-0.001405
13.942,-0.048115,0.013039,-0.001552
13.981,-0.048029,0.013083,-0.00161
14.001,-0.047891,0.013121,-0.001651
14.021,-0.047757,0.013194,-0.001687
14.041,-0.047677,0.013244,-0.001728
14.061,-0.047639,0.013228,-0.001771
14.081,-0.047607,0.013195,-0.00182
14.101,-0.047595,0.013178,-0.001876
14.121,-0.047581,0.013251,-0.001953
14.141,-0.04748,0.013317,-0.002035
14.161,-0.047366,0.013403,-0.002108
14.181,-0.047295,0.013519,-0.0021
14.201,-0.047244,0.013441,-0.002006
14.221,-0.04718,0.013198,-0.001879
14.26,-0.047244,0.013006,-0.001872
14.28,-0.047263,0.012872,-0.001862
14.3,-0.04719,0.01269,-0.001821
14.32,-0.04709,0.012625,-0.00182
14.34,-0.047039,0.012683,-0.001831
14.36,-0.047022,0.012705,-0.001834
14.38,-0.046997,0.012671,-0.001819
14.4,-0.047017,0.01261,-0.001787
14.42,-0.047023,0.012519,-0.001765
14.44,-0.046968,0.012364,-0.001693
14.46,-0.046868,0.012185,-0.001635
14.48,-0.046801,0.012163,-0.001671
14.5,-0.046812,0.012344,-0.001781
14.52,-0.04675,0.012495,-0.001894
14.559,-0.046653,0.01253,-0.001933
14.579,-0.046615,0.012553,-0.002003
14.599,-0.04667,0.012541,-0.002063
14.619,-0.046718,0.012529,-0.002044
14.639,-0.046662,0.012493,-0.001947
14.659,-0.046527,0.012408,-0.001846
14.679,-0.046412,0.01231,-0.001804
14.699,-0.046408,0.012265,-0.001836
14.719,-0.046515,0.012314,-0.001865
14.739,-0.04656,0.012256,-0.001834
14.759,-0.046484,0.012193,-0.001821
14.779,-0.046377,0.01224,-0.00186
14.818,-0.046334,0.012396,-0.001908
14.838,-0.04633,0.012503,-0.001912
14.858,-0.046341,0.012324,-0.002018
14.878,-0.046346,0.01236,-0.002138
14.898,-0.046306,0.012514,-0.002237
14.918,-0.046213,0.012826,-0.002268
14.938,-0.046149,0.012842,-0.002408
14.958,-0.046244,0.013109,-0.002645
14.978,-0.046261,0.013173,-0.002713
14.998,-0.046059,0.012769,-0.002531
15.018,-0.045881,0.012507,-0.00246
15.038,-0.045922,0.012773,-0.002698
15.077,-0.045902,0.012967,-0.002724
15.097,-0.045877,0.012963,-0.002711
15.117,-0.045925,0.012995,-0.002746
15.137,-0.045949,0.012857,-0.002655
15.157,-0.045872,0.012667,-0.00246
15.177,-0.045777,0.012613,-0.00241
15.197,-0.045755,0.012838,-0.002605
15.217,-0.045746,0.013176,-0.002832
15.237,-0.045653,0.013286,-0.002882
15.257,-0.045557,0.013209,-0.002818
15.277,-0.045532,0.013037,-0.002739
15.297,-0.045525,0.012881,-0.002669
15.317,-0.045481,0.01276,-0.002621
15.356,-0.045525,0.012936,-0.002687
15.376,-0.045492,0.013014,-0.002714
15.396,-0.045437,0.012995,-0.002716
15.416,-0.045464,0.01305,-0.002744
15.436,-0.045504,0.013112,-0.002767
15.456,-0.045478,0.013151,-0.002764
15.476,-0.045419,0.013199,-0.00277
15.496,-0.04541,0.013321,-0.002835
15.516,-0.045442,0.01345,-0.002919
15.541,-0.04547,0.013488,-0.002919
15.577,-0.045393,0.013326,-0.002853
15.615,-0.045493,0.013363,-0.002875
15.635,-0.04554,0.01337,-0.002893
15.655,-0.045461,0.013316,-0.00289
15.675,-0.045371,0.013357,-0.002911
15.695,-0.045308,0.013466,-0.002957
15.715,-0.045283,0.013559,-0.003016
15.735,-0.045255,0.013625,-0.003087
15.755,-0.045243,0.013642,-0.003131
15.775,-0.045258,0.013677,-0.003138
15.795,-0.04525,0.013714,-0.003136
15.815,-0.045226,0.013733,-0.003148
15.835,-0.045215,0.013754,-0.003184
15.855,-0.045188,0.013761,-0.003221
15.875,-0.045136,0.013787,-0.003273
15.914,-0.045165,0.013942,-0.003356
15.934,-0.045178,0.014058,-0.003445
15.954,-0.045156,0.014079,-0.003523
15.974,-0.045117,0.014137,-0.003618
15.994,-0.045091,0.01425,-0.003737
16.014,-0.045092,0.014373,-0.003853
16.034,-0.045081,0.014431,-0.003934
16.054,-0.045078,0.014421,-0.003989
16.074,-0.045079,0.01443,-0.004047
16.094,-0.045087,0.014473,-0.004127
16.114,-0.045085,0.014571,-0.004249
16.134,-0.045057,0.014685,-0.004397
16.173,-0.045081,0.014855,-0.004572
16.193,-0.045119,0.015002,-0.004731
16.213,-0.045127,0.015081,-0.004889
16.233,-0.045112,0.015186,-0.005086
16.253,-0.04512,0.015387,-0.00538
16.273,-0.045349,0.015955,-0.005788
16.293,-0.045556,0.016718,-0.006276
16.313,-0.0454,0.016554,-0.006602
16.333,-0.044365,0.014601,-0.006752
16.353,-0.044004,0.013378,-0.007941
16.373,-0.045029,0.015419,-0.010284
16.393,-0.04659,0.018856,-0.012354
16.413,-0.047784,0.022329,-0.013159
16.452,-0.048122,0.023546,-0.011551
16.472,-0.048693,0.025262,-0.009817
16.492,-0.049692,0.028283,-0.008099
16.512,-0.050858,0.031922,-0.006083
16.532,-0.051829,0.035617,-0.003714
16.552,-0.052716,0.039586,-0.001271
16.572,-0.053607,0.043792,0.001103
16.592,-0.054335,0.047582,0.003532
16.612,-0.054906,0.050748,0.006085
16.632,-0.05529,0.052949,0.008582
16.652,-0.055613,0.054324,0.010862
16.672,-0.056088,0.055773,0.012426
16.692,-0.056728,0.057657,0.013119
16.731,-0.057541,0.059357,0.01291
16.751,-0.058284,0.060392,0.012297
16.771,-0.058853,0.060425,0.011198
16.791,-0.059166,0.05942,0.00955
16.811,-0.059337,0.057586,0.007481
16.831,-0.058984,0.0544,0.005123
16.851,-0.058412,0.050864,0.001998
16.871,-0.057851,0.04743,-0.002073
16.891,-0.057174,0.043523,-0.006831
16.911,-0.056187,0.038099,-0.011853
16.931,-0.05491,0.031253,-0.017054
16.951,-0.053821,0.024025,-0.021908
16.99,-0.055107,0.019062,-0.025143
17.01,-0.056963,0.014071,-0.027824
17.03,-0.058652,0.008135,-0.029231
17.05,-0.060698,0.002493,-0.029394
17.07,-0.063499,-0.001003,-0.028983
17.09,-0.066475,-0.002873,-0.028082
17.11,-0.068794,-0.004544,-0.02677
17.13,-0.070365,-0.00593,-0.025427
17.15,-0.071486,-0.006341,-0.024235
17.17,-0.071808,-0.007186,-0.022633
17.19,-0.071371,-0.010016,-0.020259
17.21,-0.07091,-0.013405,-0.01848
17.23,-0.070554,-0.014509,-0.014419
17.25,-0.068872,-0.016681,-0.01052
17.289,-0.066457,-0.015926,-0.011171
17.309,-0.065259,-0.013676,-0.013311
17.329,-0.065179,-0.011299,-0.015371
17.349,-0.064956,-0.010896,-0.016146
17.369,-0.064419,-0.01187,-0.016209
17.389,-0.064008,-0.012552,-0.016434
17.409,-0.064091,-0.011573,-0.01686
17.429,-0.064189,-0.009932,-0.017232
17.449,-0.064018,-0.009193,-0.017415
17.469,-0.063735,-0.00897,-0.017608
17.489,-0.063384,-0.008647,-0.017834
17.509,-0.062818,-0.008416,-0.017917
17.529,-0.062228,-0.008307,-0.017674
17.568,-0.062129,-0.008922,-0.017047
17.588,-0.062002,-0.009804,-0.016429
17.608,-0.061602,-0.010752,-0.016035
17.628,-0.061138,-0.011452,-0.015936
17.648,-0.060809,-0.011856,-0.016006
17.668,-0.060709,-0.01158,-0.015989
17.688,-0.060475,-0.011024,-0.015795
17.711,-0.060006,-0.010874,-0.015475
17.748,-0.059612,-0.010742,-0.015454
17.768,-0.059399,-0.010592,-0.015505
17.788,-0.059306,-0.010475,-0.015274
17.808,-0.059043,-0.01081,-0.014548
17.847,-0.058476,-0.01095,-0.01432
17.867,-0.058177,-0.010291,-0.014737
17.887,-0.058002,-0.00945,-0.015269
17.907,-0.057857,-0.008373,-0.015446
17.927,-0.057475,-0.007652,-0.015142
17.947,-0.056915,-0.007753,-0.014533
17.967,-0.056416,-0.007905,-0.014116
17.987,-0.05615,-0.007493,-0.014109
18.007,-0.055902,-0.007048,-0.014179
18.027,-0.055606,-0.006471,-0.014155
18.047,-0.055262,-0.006462,-0.013854
18.067,-0.055044,-0.006836,-0.013458
18.087,-0.0551,-0.006832,-0.013304
18.126,-0.054949,-0.006868,-0.013376
18.146,-0.054826,-0.006674,-0.013365
18.166,-0.054818,-0.00576,-0.013347
18.186,-0.054657,-0.004578,-0.013441
18.206,-0.054348,-0.003326,-0.013697
18.226,-0.054082,-0.002049,-0.013976
18.246,-0.053821,-0.000853,-0.014143
18.266,-0.053577,0.00019,-0.014119
18.286,-0.05322,0.000864,-0.013936
18.306,-0.053316,0.002288,-0.01386
18.326,-0.053937,0.00521,-0.014132
18.346,-0.053999,0.007785,-0.014449
18.366,-0.053668,0.009968,-0.014902
18.405,-0.053635,0.012648,-0.015481
18.425,-0.053451,0.015234,-0.015868
18.445,-0.053002,0.017441,-0.016127
18.465,-0.052456,0.01894,-0.016247
18.485,-0.051856,0.019612,-0.016348
18.505,-0.051336,0.01992,-0.016438
18.525,-0.050824,0.019474,-0.016303
18.545,-0.050335,0.018145,-0.015889
18.565,-0.049976,0.016446,-0.015358
18.585,-0.049748,0.014564,-0.014782
18.605,-0.049523,0.012643,-0.014233
18.625,-0.049464,0.011435,-0.013829
18.645,-0.049348,0.010637,-0.013436
18.684,-0.048952,0.010026,-0.013072
18.704,-0.048713,0.009734,-0.012844
18.724,-0.048648,0.010116,-0.012683
18.744,-0.048335,0.010868,-0.012371
18.764,-0.047765,0.01161,-0.011946
18.784,-0.047167,0.012083,-0.01155
18.804,-0.046855,0.012755,-0.011379
18.824,-0.046938,0.014152,-0.011414
18.844,-0.046948,0.01584,-0.011403
18.864,-0.046633,0.016879,-0.011214
18.884,-0.046239,0.017815,-0.011088
18.904,-0.046211,0.019552,-0.011359
18.924,-0.046796,0.022988,-0.012191
18.963,-0.046995,0.02691,-0.012743
18.983,-0.046628,0.030318,-0.012978
19.003,-0.046508,0.034308,-0.013266
19.023,-0.047008,0.039977,-0.013773
19.043,-0.047539,0.046338,-0.014028
19.063,-0.047416,0.051694,-0.013731
19.083,-0.047084,0.056831,-0.013627
19.103,-0.04709,0.064038,-0.01436
19.123,-0.046998,0.072753,-0.015412
19.143,-0.046406,0.081588,-0.01623
19.163,-0.04578,0.091041,-0.016695
19.183,-0.045432,0.100592,-0.016796
19.203,-0.045228,0.109275,-0.016481
19.242,-0.044304,0.115945,-0.016019
19.262,-0.043528,0.124342,-0.016279
19.282,-0.043216,0.135101,-0.016965
19.302,-0.04279,0.145445,-0.01678
19.322,-0.041932,0.153399,-0.015423
19.342,-0.041052,0.159196,-0.013789
19.362,-0.040834,0.165662,-0.012888
19.382,-0.041693,0.175432,-0.012817
19.402,-0.042275,0.183985,-0.012408
19.422,-0.042016,0.18996,-0.011527
19.442,-0.041883,0.196781,-0.010782
19.462,-0.04219,0.204975,-0.010202
19.501,-0.04232,0.212426,-0.009396
19.521,-0.042441,0.219183,-0.008215
19.541,-0.042585,0.224555,-0.00672
19.561,-0.04306,0.230673,-0.005227
19.581,-0.044033,0.238971,-0.003723
19.601,-0.045321,0.24811,-0.002211
19.621,-0.046967,0.256382,-0.000302
19.641,-0.048905,0.263635,0.001859
19.661,-0.050871,0.268199,0.004276
19.681,-0.052795,0.272211,0.006377
19.701,-0.055558,0.2817,0.007586
19.721,-0.058327,0.294667,0.008368
19.741,-0.060408,0.307747,0.009036
19.78,-0.061731,0.323727,0.008311
19.8,-0.062525,0.342995,0.007227
19.82,-0.063308,0.365543,0.006014
19.84,-0.063362,0.387726,0.004764
19.86,-0.062503,0.41185,0.002836
19.883,-0.0632,0.434505,0.000987
19.922,-0.064923,0.44118,-0.000062
19.96,-0.065914,0.450291,-0.002684
19.98,-0.066264,0.457578,-0.004936
20,-0.067505,0.463081,-0.00678
20.02,-0.068692,0.465758,-0.007454
20.059,-0.069471,0.463116,-0.007215
20.079,-0.068927,0.459334,-0.006359
20.099,-0.068792,0.460098,-0.007143
20.119,-0.068196,0.459568,-0.008001
20.139,-0.066414,0.461814,-0.00929
20.159,-0.064567,0.46655,-0.011383
20.179,-0.064378,0.469926,-0.012164
20.199,-0.063144,0.465565,-0.012526
20.219,-0.061664,0.462128,-0.01453
20.239,-0.060951,0.455051,-0.018741
20.259,-0.05721,0.453719,-0.022742
20.279,-0.05094,0.466968,-0.025143
20.318,-0.054834,0.463443,-0.024727
20.338,-0.06108,0.46108,-0.024159
20.358,-0.066818,0.465628,-0.022995
20.378,-0.06868,0.471685,-0.020982
20.398,-0.066783,0.47399,-0.020016
20.418,-0.066389,0.468328,-0.019539
20.438,-0.069792,0.461597,-0.01863
20.458,-0.075092,0.464655,-0.017493
20.478,-0.078655,0.467038,-0.016662
20.498,-0.081642,0.4629,-0.015952
20.518,-0.084838,0.461272,-0.015883
20.538,-0.088873,0.458368,-0.016047
20.558,-0.09333,0.459092,-0.017444
20.597,-0.091846,0.450638,-0.018467
20.617,-0.090733,0.442363,-0.018443
20.637,-0.090156,0.434875,-0.018061
20.657,-0.090111,0.427962,-0.018478
20.677,-0.090619,0.425027,-0.018915
20.697,-0.091194,0.422569,-0.018301
20.717,-0.091069,0.415972,-0.017804
20.737,-0.089225,0.402646,-0.017757
20.757,-0.086819,0.391622,-0.017395
20.777,-0.084581,0.383872,-0.016976
20.797,-0.082683,0.375827,-0.016571
20.817,-0.081177,0.367472,-0.016584
20.837,-0.080309,0.361548,-0.017191
20.876,-0.078078,0.352243,-0.017585
20.896,-0.076778,0.345789,-0.017568
20.916,-0.076106,0.339999,-0.017428
20.936,-0.074659,0.332791,-0.017613
20.956,-0.073306,0.325982,-0.017865
20.976,-0.072177,0.321047,-0.018068
20.996,-0.070755,0.314805,-0.018201
21.016,-0.06977,0.308174,-0.018401
21.036,-0.069248,0.301532,-0.018057
21.056,-0.069168,0.296059,-0.017086
21.076,-0.070037,0.290078,-0.015791
21.096,-0.071517,0.286932,-0.014807
21.135,-0.07318,0.28393,-0.013407
21.155,-0.073933,0.280609,-0.012088
21.175,-0.073609,0.281899,-0.010588
21.195,-0.072316,0.278974,-0.009846
21.215,-0.070574,0.271217,-0.008922
21.235,-0.069307,0.264867,-0.0071
21.255,-0.068437,0.2573,-0.004804
21.275,-0.067117,0.2526,-0.002798
21.295,-0.0659,0.250185,-0.001676
21.315,-0.064011,0.247649,-0.000539
21.335,-0.061769,0.245894,0.000562
21.355,-0.061045,0.247003,0.00146
21.375,-0.06059,0.251066,0.000826
21.414,-0.059638,0.25252,0.0009
21.434,-0.057398,0.250733,0.001387
21.465,-0.055312,0.248373,0.001672
21.494,-0.052971,0.247078,0.001377
21.514,-0.052209,0.245751,0.000952
21.534,-0.052624,0.242583,0.000386
21.554,-0.053423,0.239745,-0.000045
21.574,-0.054305,0.238116,-0.000488
21.594,-0.055988,0.237799,-0.001276
21.614,-0.058047,0.236839,-0.002214
21.634,-0.059845,0.234816,-0.003191
21.654,-0.061176,0.231852,-0.003833
21.693,-0.061794,0.228514,-0.00454
21.713,-0.061712,0.225711,-0.005224
21.733,-0.061794,0.223312,-0.005825
21.753,-0.061828,0.221574,-0.006303
21.773,-0.061937,0.220734,-0.006906
21.793,-0.062283,0.219892,-0.007544
21.813,-0.062688,0.218223,-0.007844
21.833,-0.063401,0.216935,-0.00779
21.853,-0.064406,0.216204,-0.007659
21.873,-0.065541,0.215307,-0.007712
21.893,-0.066244,0.213894,-0.007777
21.913,-0.066311,0.212325,-0.007588
21.933,-0.066231,0.211545,-0.007469
21.972,-0.066466,0.20987,-0.007513
21.992,-0.066771,0.208564,-0.007496
22.012,-0.066655,0.20731,-0.007575
22.032,-0.066539,0.205983,-0.007697
22.052,-0.066416,0.204199,-0.007597
22.072,-0.066014,0.202004,-0.007464
