gyro_time_list,gyro_x_list,gyro_y_list,gyro_z_list
0.310000,-0.864271,0.946608,4.365588
0.330000,-0.416681,0.852480,4.276456
0.350000,-0.014791,0.757949,4.080035
0.370000,0.272196,0.680762,3.823061
0.390000,0.412656,0.625330,3.523268
0.410000,0.429371,0.577938,3.203516
0.430000,0.358956,0.536972,2.876234
0.450000,0.233432,0.503631,2.558426
0.470000,0.077959,0.476010,2.258316
0.490000,-0.092092,0.454054,1.984180
0.510000,-0.266035,0.435902,1.743600
0.530000,-0.429656,0.418052,1.539175
0.550000,-0.567677,0.398847,1.368474
0.570000,-0.667675,0.377981,1.228057
0.590000,-0.727118,0.354960,1.112053
0.610000,-0.754264,0.331068,1.014473
0.630000,-0.765413,0.307433,0.928996
0.650000,-0.775199,0.284962,0.850089
0.670000,-0.789306,0.266388,0.773978
0.690000,-0.806853,0.251830,0.696456
0.710000,-0.826138,0.239667,0.614626
0.730000,-0.848490,0.230302,0.528079
0.750000,-0.872456,0.223674,0.437706
0.770000,-0.889827,0.218980,0.345819
0.790000,-0.891645,0.214101,0.255190
0.810000,-0.875067,0.207889,0.167142
0.830000,-0.841754,0.201075,0.084336
0.850000,-0.793487,0.194113,0.008764
0.870000,-0.732248,0.186457,-0.058456
0.890000,-0.661601,0.177009,-0.116972
0.910000,-0.587169,0.165839,-0.167000
0.930000,-0.514428,0.154721,-0.208883
0.950000,-0.446813,0.145089,-0.242973
0.970000,-0.385647,0.136308,-0.269770
0.990000,-0.332034,0.127385,-0.289945
1.010000,-0.287862,0.118888,-0.304323
1.030000,-0.251684,0.111655,-0.313382
1.050000,-0.219559,0.105574,-0.317175
1.070000,-0.189972,0.099895,-0.316074
1.090000,-0.163873,0.094392,-0.311865
1.110000,-0.140818,0.089828,-0.304902
1.130000,-0.120988,0.086235,-0.294957
1.150000,-0.104709,0.083420,-0.282789
1.170000,-0.091417,0.081225,-0.269065
1.190000,-0.079940,0.078995,-0.254640
1.210000,-0.069461,0.075764,-0.240132
1.230000,-0.059720,0.071520,-0.226973
1.250000,-0.051213,0.066851,-0.215962
1.270000,-0.044278,0.061828,-0.207663
1.290000,-0.039122,0.056290,-0.202278
1.310000,-0.036978,0.050183,-0.199361
1.330000,-0.037850,0.043597,-0.198425
1.350000,-0.040181,0.036075,-0.198612
1.370000,-0.042264,0.027355,-0.199841
1.390000,-0.042577,0.017571,-0.202284
1.410000,-0.040500,0.007324,-0.206126
1.430000,-0.036619,-0.003115,-0.211399
1.450000,-0.031545,-0.013898,-0.218020
1.470000,-0.025125,-0.025329,-0.225635
1.490000,-0.016761,-0.037720,-0.234985
1.510000,-0.006935,-0.050975,-0.246557
1.530000,0.002818,-0.064750,-0.260526
1.550000,0.011236,-0.079415,-0.276775
1.570000,0.018280,-0.095590,-0.294711
1.590000,0.026364,-0.114000,-0.313806
1.610000,0.039267,-0.134130,-0.333311
1.630000,0.056395,-0.154716,-0.352590
1.650000,0.075257,-0.175540,-0.371505
1.670000,0.093392,-0.196747,-0.388126
1.690000,0.112329,-0.219525,-0.402555
1.710000,0.138248,-0.244087,-0.414794
1.730000,0.169988,-0.270148,-0.425667
1.750000,0.196269,-0.296220,-0.437070
1.770000,0.210204,-0.322526,-0.450700
1.790000,0.212098,-0.349692,-0.467954
1.810000,0.212983,-0.378198,-0.485854
1.830000,0.222368,-0.406974,-0.503527
1.850000,0.236697,-0.434559,-0.521573
1.870000,0.244750,-0.457871,-0.543369
1.890000,0.246821,-0.477631,-0.568431
1.910000,0.256188,-0.497536,-0.592707
1.930000,0.270309,-0.517941,-0.614677
1.950000,0.278320,-0.534093,-0.634697
1.970000,0.279934,-0.542177,-0.648136
1.990000,0.281664,-0.535564,-0.643785
2.010000,0.293269,-0.512736,-0.615143
2.030000,0.319010,-0.475403,-0.559807
2.050000,0.350347,-0.415788,-0.480900
2.070000,0.380486,-0.335574,-0.408219
2.090000,0.275817,-0.448697,-0.482162
2.110000,0.270196,-0.538200,-0.600276
2.130000,0.198723,-0.666044,-0.633530
2.150000,0.076135,-0.553804,-0.758913
2.170000,-0.060153,-0.386247,-0.725632
2.190000,-0.143074,-0.284300,-0.710704
2.210000,-0.040477,-0.221077,-0.740370
2.230000,-0.040719,-0.213660,-0.720121
2.250000,-0.031776,-0.230252,-0.686646
2.270000,-0.000108,-0.236864,-0.646439
2.290000,0.031385,-0.237507,-0.610062
2.327000,0.002983,-0.223069,-0.595202
2.347000,-0.033907,-0.198043,-0.588226
2.367000,-0.049349,-0.179030,-0.582188
2.387000,-0.081261,-0.163015,-0.575651
2.407000,-0.119802,-0.150337,-0.569695
2.427000,-0.141138,-0.141398,-0.564961
2.447000,-0.162436,-0.131892,-0.561084
2.467000,-0.197982,-0.125129,-0.551532
2.487000,-0.219096,-0.120627,-0.538024
2.507000,-0.222340,-0.115759,-0.525980
2.527000,-0.226000,-0.112512,-0.513437
2.547000,-0.230818,-0.109603,-0.497662
2.567000,-0.229688,-0.106449,-0.483079
2.587000,-0.223903,-0.103788,-0.470569
2.607000,-0.216601,-0.101337,-0.458433
2.627000,-0.209309,-0.099745,-0.447212
2.647000,-0.203692,-0.099823,-0.437443
2.667000,-0.198010,-0.100481,-0.427633
2.687000,-0.190406,-0.100262,-0.417940
2.707000,-0.180234,-0.099558,-0.407583
2.727000,-0.168821,-0.098319,-0.397312
2.747000,-0.159083,-0.096785,-0.387865
2.767000,-0.152945,-0.095494,-0.378846
2.787000,-0.146557,-0.094351,-0.369393
2.807000,-0.139603,-0.093058,-0.359913
2.827000,-0.133742,-0.092008,-0.351369
2.847000,-0.128569,-0.090599,-0.343504
2.867000,-0.125269,-0.088736,-0.336070
2.887000,-0.123620,-0.086749,-0.329093
2.907000,-0.120407,-0.084880,-0.321872
2.927000,-0.117170,-0.083334,-0.314425
2.947000,-0.113692,-0.081632,-0.307074
2.967000,-0.110221,-0.079518,-0.300120
2.987000,-0.108134,-0.077434,-0.293624
3.007000,-0.106834,-0.075251,-0.287805
3.027000,-0.106815,-0.073010,-0.282599
3.047000,-0.107266,-0.070941,-0.277690
3.067000,-0.107289,-0.068971,-0.272941
3.087000,-0.107223,-0.067026,-0.268469
3.107000,-0.107983,-0.065118,-0.264304
3.127000,-0.108828,-0.063281,-0.260114
3.147000,-0.108091,-0.061597,-0.255371
3.167000,-0.106192,-0.060072,-0.250420
3.187000,-0.104619,-0.058599,-0.245782
3.207000,-0.103483,-0.057060,-0.241541
3.227000,-0.102655,-0.055477,-0.237424
3.247000,-0.101168,-0.054094,-0.233224
3.267000,-0.098710,-0.053000,-0.229061
3.287000,-0.096133,-0.051839,-0.224910
3.307000,-0.094430,-0.050757,-0.221098
3.327000,-0.093089,-0.049664,-0.217340
3.347000,-0.090791,-0.048584,-0.213413
3.367000,-0.088107,-0.047360,-0.209458
3.387000,-0.085597,-0.046114,-0.205461
3.407000,-0.083503,-0.044941,-0.201568
3.427000,-0.081464,-0.043887,-0.197879
3.447000,-0.079834,-0.042937,-0.194631
3.467000,-0.078944,-0.041915,-0.191555
3.487000,-0.078475,-0.040824,-0.188625
3.507000,-0.077436,-0.039808,-0.185637
3.527000,-0.075025,-0.038902,-0.182592
3.547000,-0.073252,-0.038197,-0.180164
3.567000,-0.073189,-0.037392,-0.177988
3.587000,-0.073454,-0.036577,-0.175685
3.607000,-0.072998,-0.035925,-0.173253
3.627000,-0.073150,-0.035398,-0.171099
3.647000,-0.074182,-0.034885,-0.169298
3.667000,-0.074782,-0.034311,-0.167392
3.687000,-0.075121,-0.033832,-0.165450
3.707000,-0.075480,-0.033393,-0.163696
3.727000,-0.075447,-0.032863,-0.161771
3.747000,-0.074366,-0.032359,-0.159574
3.767000,-0.073661,-0.031936,-0.157594
3.787000,-0.073421,-0.031555,-0.156031
3.807000,-0.072914,-0.031027,-0.154423
3.827000,-0.072357,-0.030362,-0.152691
3.847000,-0.071957,-0.029838,-0.151287
3.867000,-0.071573,-0.029244,-0.149721
3.887000,-0.071151,-0.028629,-0.148158
3.907000,-0.071378,-0.028059,-0.146918
3.927000,-0.071996,-0.027430,-0.145775
3.947000,-0.072225,-0.026691,-0.144450
3.967000,-0.072307,-0.025922,-0.142897
3.987000,-0.072188,-0.025277,-0.141229
4.007000,-0.071580,-0.024712,-0.139503
4.027000,-0.071049,-0.024175,-0.137849
4.047000,-0.070981,-0.023638,-0.136396
4.067000,-0.070892,-0.023054,-0.134968
4.087000,-0.070408,-0.022481,-0.133380
4.107000,-0.070070,-0.022094,-0.131937
4.127000,-0.069807,-0.021941,-0.130577
4.147000,-0.068677,-0.021776,-0.128959
4.167000,-0.067271,-0.021408,-0.127423
4.187000,-0.066710,-0.020889,-0.126153
4.207000,-0.066534,-0.020297,-0.124985
4.227000,-0.066022,-0.019708,-0.123626
4.247000,-0.065172,-0.019282,-0.122280
4.267000,-0.064591,-0.018881,-0.121122
4.287000,-0.064609,-0.018414,-0.120083
4.307000,-0.064739,-0.017953,-0.119055
4.334000,-0.064523,-0.017505,-0.117827
4.354000,-0.064171,-0.017142,-0.116652
4.374000,-0.064105,-0.016819,-0.115615
4.394000,-0.064184,-0.016480,-0.114622
4.414000,-0.064032,-0.016017,-0.113522
4.434000,-0.063886,-0.015561,-0.112489
4.454000,-0.063877,-0.015191,-0.111537
4.474000,-0.063758,-0.014831,-0.110567
4.494000,-0.063688,-0.014456,-0.109622
4.514000,-0.063774,-0.014132,-0.108794
4.534000,-0.064089,-0.013873,-0.108115
4.554000,-0.064390,-0.013554,-0.107351
4.574000,-0.064391,-0.013172,-0.106443
4.594000,-0.064124,-0.012764,-0.105455
4.614000,-0.063932,-0.012365,-0.104492
4.634000,-0.063742,-0.011966,-0.103503
4.654000,-0.063523,-0.011620,-0.102585
4.674000,-0.063264,-0.011335,-0.101737
4.694000,-0.063101,-0.011016,-0.100916
4.714000,-0.062877,-0.010536,-0.100030
4.734000,-0.062574,-0.010045,-0.099116
4.754000,-0.062452,-0.009672,-0.098317
4.774000,-0.062224,-0.009359,-0.097535
4.794000,-0.061919,-0.008990,-0.096642
4.814000,-0.061650,-0.008622,-0.095781
4.834000,-0.061436,-0.008252,-0.094918
4.854000,-0.061235,-0.007895,-0.094000
4.874000,-0.060757,-0.007584,-0.093098
4.894000,-0.060493,-0.007264,-0.092293
4.914000,-0.060421,-0.006885,-0.091514
4.934000,-0.060302,-0.006531,-0.090811
4.954000,-0.060156,-0.006155,-0.090051
4.974000,-0.059881,-0.005810,-0.089260
4.994000,-0.059488,-0.005428,-0.088471
5.014000,-0.059263,-0.004932,-0.087745
5.034000,-0.059178,-0.004349,-0.086993
5.054000,-0.058932,-0.003734,-0.086227
5.074000,-0.058761,-0.003143,-0.085416
5.094000,-0.058902,-0.002680,-0.084745
5.114000,-0.058994,-0.002401,-0.084198
5.134000,-0.058708,-0.002165,-0.083503
5.154000,-0.058041,-0.001990,-0.082752
5.174000,-0.057235,-0.001864,-0.081930
5.194000,-0.056181,-0.001664,-0.081060
5.214000,-0.054937,-0.001499,-0.080206
5.234000,-0.054385,-0.001487,-0.079644
5.254000,-0.054237,-0.001422,-0.078876
5.274000,-0.053079,-0.001350,-0.077927
5.294000,-0.051812,-0.001293,-0.076823
5.314000,-0.050659,-0.001361,-0.075856
5.334000,-0.049272,-0.001431,-0.074787
5.354000,-0.048307,-0.001561,-0.073955
5.374000,-0.048008,-0.001600,-0.073423
5.394000,-0.048024,-0.001425,-0.072893
5.414000,-0.047466,-0.001279,-0.072064
5.434000,-0.046104,-0.001440,-0.071192
5.454000,-0.045960,-0.001805,-0.070637
5.474000,-0.046568,-0.002128,-0.070337
5.494000,-0.046301,-0.002279,-0.069843
5.514000,-0.045480,-0.002332,-0.069326
5.534000,-0.046145,-0.002195,-0.069096
5.554000,-0.047415,-0.002212,-0.069267
5.574000,-0.047467,-0.002104,-0.068853
5.594000,-0.047591,-0.002353,-0.068623
5.614000,-0.048810,-0.002790,-0.069041
5.634000,-0.050303,-0.002702,-0.069154
5.654000,-0.050618,-0.002282,-0.068747
5.674000,-0.050896,-0.001937,-0.068317
5.694000,-0.052118,-0.001540,-0.068168
5.714000,-0.053519,-0.000971,-0.067760
5.734000,-0.053616,-0.000447,-0.067196
5.754000,-0.054240,0.000077,-0.067063
5.774000,-0.055861,0.000531,-0.067355
5.794000,-0.057003,0.000994,-0.067256
5.814000,-0.056819,0.001254,-0.067096
5.834000,-0.056565,0.001354,-0.066909
5.854000,-0.056946,0.001434,-0.066646
5.874000,-0.057267,0.001569,-0.066220
5.894000,-0.056697,0.001768,-0.065423
5.914000,-0.056210,0.001681,-0.064914
5.934000,-0.056260,0.001637,-0.064603
5.954000,-0.056418,0.001886,-0.063924
5.974000,-0.056216,0.001985,-0.063182
5.994000,-0.056202,0.002021,-0.062751
6.014000,-0.056591,0.002219,-0.062510
6.034000,-0.056445,0.002422,-0.062078
6.054000,-0.056572,0.002695,-0.061200
6.074000,-0.056027,0.002701,-0.060714
6.094000,-0.055500,0.002625,-0.060369
6.114000,-0.055405,0.002753,-0.059884
6.134000,-0.055427,0.003009,-0.059180
6.154000,-0.055692,0.003138,-0.058644
6.174000,-0.056375,0.003237,-0.058409
6.194000,-0.056695,0.003428,-0.058109
6.214000,-0.056362,0.003731,-0.057608
6.234000,-0.056274,0.003988,-0.057238
6.254000,-0.056649,0.004180,-0.057056
6.274000,-0.056990,0.004437,-0.056792
6.294000,-0.057009,0.004650,-0.056515
6.314000,-0.056936,0.004655,-0.056452
6.366000,-0.056908,0.004884,-0.055943
6.386000,-0.056931,0.005161,-0.055454
6.406000,-0.057174,0.005397,-0.055185
6.426000,-0.057247,0.005532,-0.054942
6.446000,-0.057079,0.005737,-0.054531
6.466000,-0.056630,0.005978,-0.054006
6.486000,-0.056205,0.006178,-0.053545
6.506000,-0.055845,0.006328,-0.053069
6.526000,-0.055646,0.006491,-0.052646
6.546000,-0.055632,0.006707,-0.052206
6.566000,-0.055465,0.006905,-0.051766
6.586000,-0.055054,0.007065,-0.051321
6.606000,-0.054547,0.007216,-0.050857
6.626000,-0.054446,0.007422,-0.050401
6.646000,-0.054686,0.007596,-0.050073
6.666000,-0.054712,0.007682,-0.049817
6.686000,-0.054447,0.007808,-0.049461
6.706000,-0.054233,0.007980,-0.049076
6.726000,-0.054059,0.008160,-0.048702
6.746000,-0.054044,0.008320,-0.048373
6.766000,-0.054257,0.008470,-0.048069
6.786000,-0.054417,0.008714,-0.047739
6.806000,-0.054112,0.008912,-0.047319
6.826000,-0.053861,0.009058,-0.046999
6.846000,-0.053790,0.009151,-0.046751
6.866000,-0.053721,0.009279,-0.046489
6.886000,-0.053652,0.009432,-0.046197
6.906000,-0.053745,0.009577,-0.045914
6.926000,-0.053994,0.009729,-0.045709
6.946000,-0.054132,0.009921,-0.045506
6.966000,-0.054098,0.010119,-0.045211
6.986000,-0.053945,0.010236,-0.044891
7.006000,-0.053847,0.010298,-0.044631
7.026000,-0.053848,0.010398,-0.044365
7.046000,-0.053741,0.010516,-0.044056
7.066000,-0.053605,0.010625,-0.043771
7.086000,-0.053518,0.010755,-0.043523
7.106000,-0.053541,0.010894,-0.043290
7.126000,-0.053436,0.011044,-0.042979
7.146000,-0.053418,0.011194,-0.042635
7.166000,-0.053747,0.011346,-0.042376
7.186000,-0.054254,0.011529,-0.042226
7.206000,-0.054670,0.011847,-0.042042
7.226000,-0.054881,0.012151,-0.041782
7.246000,-0.054837,0.012336,-0.041482
7.266000,-0.054986,0.012455,-0.041315
7.286000,-0.055154,0.012534,-0.041284
7.306000,-0.055079,0.012641,-0.041162
7.326000,-0.054603,0.012698,-0.041041
7.346000,-0.054224,0.012799,-0.040876
7.366000,-0.053643,0.012940,-0.040563
7.386000,-0.053264,0.013237,-0.039981
7.406000,-0.053705,0.013452,-0.039472
7.426000,-0.052952,0.013706,-0.038732
7.446000,-0.052176,0.014125,-0.037989
7.466000,-0.052435,0.014476,-0.037435
7.486000,-0.052160,0.014916,-0.036983
7.506000,-0.051244,0.015350,-0.036436
7.526000,-0.050512,0.015566,-0.036056
7.546000,-0.049919,0.015563,-0.035637
7.566000,-0.049751,0.015668,-0.035316
7.586000,-0.049862,0.015912,-0.035114
7.606000,-0.049295,0.016129,-0.034875
7.626000,-0.048664,0.016144,-0.034783
7.646000,-0.048918,0.016128,-0.034772
7.666000,-0.049093,0.016189,-0.034695
7.686000,-0.048609,0.016306,-0.034400
7.706000,-0.047877,0.016443,-0.033948
7.726000,-0.047436,0.016517,-0.033683
7.746000,-0.047279,0.016555,-0.033541
7.766000,-0.047532,0.016612,-0.033383
7.786000,-0.047531,0.016742,-0.033114
7.806000,-0.047250,0.016889,-0.032718
7.826000,-0.047440,0.016956,-0.032566
7.846000,-0.047602,0.016962,-0.032526
7.866000,-0.047293,0.017020,-0.032355
7.886000,-0.047080,0.017153,-0.032041
7.906000,-0.047247,0.017252,-0.031902
7.926000,-0.047533,0.017196,-0.031897
7.946000,-0.047464,0.017170,-0.031791
7.966000,-0.047157,0.017276,-0.031453
7.986000,-0.047465,0.017422,-0.031221
8.006000,-0.047903,0.017376,-0.031345
8.026000,-0.048013,0.017298,-0.031434
8.046000,-0.048216,0.017345,-0.031238
8.066000,-0.048273,0.017476,-0.030974
8.086000,-0.048108,0.017499,-0.030829
8.106000,-0.047957,0.017440,-0.030730
8.126000,-0.047856,0.017532,-0.030440
8.146000,-0.048041,0.017747,-0.030097
8.166000,-0.047960,0.017856,-0.029877
8.186000,-0.047572,0.017856,-0.029722
8.206000,-0.047347,0.017909,-0.029533
8.226000,-0.047521,0.018058,-0.029315
8.246000,-0.047621,0.018100,-0.029212
8.266000,-0.047490,0.017997,-0.029233
8.286000,-0.047299,0.017933,-0.029117
8.306000,-0.047299,0.018027,-0.028910
8.326000,-0.047430,0.018095,-0.028756
8.346000,-0.047511,0.018040,-0.028785
