gyro_time_list,gyro_x_list,gyro_y_list,gyro_z_list
0.011000,-0.009000,-0.080000,0.336000
0.031000,-0.001000,-0.018000,0.311000
0.051000,0.063000,0.051000,0.301000
0.071000,0.136000,0.118000,0.308000
0.091000,0.190000,0.170000,0.369000
0.111000,0.213000,0.215000,0.454000
0.131000,0.199000,0.266000,0.540000
0.151000,0.182000,0.326000,0.633000
0.171000,0.167000,0.383000,0.731000
0.191000,0.131000,0.435000,0.832000
0.211000,0.090000,0.492000,0.935000
0.231000,0.074000,0.548000,1.048000
0.251000,0.088000,0.601000,1.166000
0.271000,0.102000,0.652000,1.282000
0.291000,0.090000,0.702000,1.389000
0.311000,0.062000,0.751000,1.490000
0.331000,0.026000,0.792000,1.583000
0.351000,-0.027000,0.824000,1.663000
0.371000,-0.104000,0.847000,1.728000
0.391000,-0.187000,0.863000,1.782000
0.411000,-0.263000,0.871000,1.828000
0.431000,-0.329000,0.873000,1.864000
0.451000,-0.384000,0.871000,1.891000
0.471000,-0.429000,0.865000,1.910000
0.491000,-0.466000,0.853000,1.920000
0.511000,-0.493000,0.835000,1.922000
0.531000,-0.504000,0.815000,1.916000
0.551000,-0.509000,0.794000,1.905000
0.571000,-0.520000,0.771000,1.887000
0.591000,-0.533000,0.748000,1.865000
0.611000,-0.543000,0.723000,1.841000
0.631000,-0.549000,0.698000,1.816000
0.651000,-0.555000,0.673000,1.790000
0.671000,-0.559000,0.648000,1.764000
0.691000,-0.561000,0.623000,1.738000
0.711000,-0.562000,0.597000,1.712000
0.731000,-0.562000,0.570000,1.684000
0.751000,-0.561000,0.542000,1.655000
0.771000,-0.557000,0.514000,1.626000
0.791000,-0.552000,0.484000,1.595000
0.811000,-0.546000,0.452000,1.564000
0.831000,-0.541000,0.418000,1.531000
0.851000,-0.536000,0.384000,1.497000
0.871000,-0.530000,0.348000,1.461000
0.891000,-0.520000,0.309000,1.424000
0.911000,-0.506000,0.268000,1.386000
0.931000,-0.490000,0.225000,1.347000
0.951000,-0.477000,0.182000,1.307000
0.971000,-0.466000,0.137000,1.268000
0.991000,-0.457000,0.092000,1.226000
1.011000,-0.449000,0.046000,1.185000
1.031000,-0.443000,0.001000,1.142000
1.051000,-0.439000,-0.044000,1.099000
1.071000,-0.434000,-0.084000,1.055000
1.091000,-0.425000,-0.120000,1.011000
1.111000,-0.415000,-0.151000,0.967000
1.131000,-0.409000,-0.176000,0.924000
1.151000,-0.415000,-0.200000,0.880000
1.171000,-0.439000,-0.225000,0.832000
1.191000,-0.478000,-0.250000,0.778000
1.211000,-0.525000,-0.274000,0.719000
1.231000,-0.578000,-0.301000,0.654000
1.251000,-0.630000,-0.333000,0.576000
1.271000,-0.646000,-0.369000,0.495000
1.291000,-0.603000,-0.333000,0.406000
1.311000,-0.571000,-0.212000,0.336000
1.331000,-0.654000,-0.047000,0.299000
1.351000,-0.611000,0.072000,0.285000
1.371000,-0.461000,-0.118000,0.384000
1.391000,-0.401000,-0.322000,0.382000
1.411000,-0.427000,-0.536000,0.224000
1.431000,-0.376000,-0.756000,0.050000
1.451000,-0.357000,-0.873000,0.027000
1.471000,-0.320000,-0.861000,0.078000
1.491000,-0.286000,-0.888000,0.224000
1.511000,-0.312000,-0.896000,0.308000
1.531000,-0.405000,-0.855000,0.356000
1.551000,-0.481000,-0.732000,0.354000
1.571000,-0.496000,-0.538000,0.324000
1.591000,-0.453000,-0.323000,0.290000
1.611000,-0.364000,-0.115000,0.256000
1.631000,-0.275000,0.064000,0.217000
1.651000,-0.213000,0.217000,0.176000
1.671000,-0.151000,0.366000,0.139000
1.691000,-0.021000,0.492000,0.140000
1.711000,0.146000,0.535000,0.171000
1.731000,0.193000,0.485000,0.183000
1.751000,0.135000,0.385000,0.164000
1.771000,0.062000,0.288000,0.148000
1.791000,0.004000,0.222000,0.119000
1.811000,-0.021000,0.183000,0.096000
1.831000,-0.023000,0.157000,0.080000
1.851000,-0.025000,0.141000,0.070000
1.871000,-0.047000,0.137000,0.069000
1.891000,-0.095000,0.143000,0.073000
1.911000,-0.157000,0.146000,0.074000
1.931000,-0.216000,0.139000,0.071000
1.951000,-0.263000,0.129000,0.068000
1.971000,-0.294000,0.117000,0.063000
1.991000,-0.310000,0.105000,0.053000
2.011000,-0.309000,0.093000,0.044000
2.031000,-0.294000,0.086000,0.036000
2.051000,-0.272000,0.085000,0.031000
2.071000,-0.244000,0.087000,0.029000
2.091000,-0.214000,0.090000,0.027000
2.111000,-0.188000,0.091000,0.025000
2.131000,-0.163000,0.087000,0.025000
2.151000,-0.141000,0.081000,0.023000
2.171000,-0.122000,0.075000,0.019000
2.191000,-0.108000,0.071000,0.016000
2.211000,-0.099000,0.069000,0.012000
2.231000,-0.094000,0.068000,0.010000
2.251000,-0.089000,0.066000,0.008000
2.271000,-0.083000,0.065000,0.007000
2.291000,-0.078000,0.064000,0.005000
2.311000,-0.074000,0.063000,0.003000
2.331000,-0.069000,0.062000,0.001000
2.351000,-0.066000,0.061000,0.000000
2.371000,-0.065000,0.061000,-0.001000
2.391000,-0.065000,0.061000,-0.002000
2.411000,-0.066000,0.060000,-0.003000
2.431000,-0.069000,0.060000,-0.005000
2.451000,-0.074000,0.059000,-0.005000
2.471000,-0.080000,0.058000,-0.006000
2.491000,-0.086000,0.057000,-0.007000
2.511000,-0.090000,0.055000,-0.007000
2.531000,-0.090000,0.054000,-0.007000
2.551000,-0.089000,0.054000,-0.008000
2.571000,-0.086000,0.054000,-0.008000
2.591000,-0.084000,0.054000,-0.008000
2.611000,-0.082000,0.054000,-0.008000
2.631000,-0.082000,0.054000,-0.009000
2.651000,-0.081000,0.054000,-0.008000
2.671000,-0.080000,0.053000,-0.008000
2.691000,-0.078000,0.053000,-0.008000
2.711000,-0.076000,0.054000,-0.009000
2.731000,-0.074000,0.054000,-0.009000
2.751000,-0.072000,0.054000,-0.009000
2.771000,-0.071000,0.054000,-0.009000
2.791000,-0.070000,0.054000,-0.010000
2.811000,-0.070000,0.054000,-0.010000
2.831000,-0.070000,0.053000,-0.010000
2.851000,-0.072000,0.053000,-0.011000
2.871000,-0.073000,0.053000,-0.011000
2.891000,-0.073000,0.052000,-0.011000
2.911000,-0.072000,0.052000,-0.011000
2.931000,-0.071000,0.052000,-0.011000
2.951000,-0.070000,0.052000,-0.011000
2.971000,-0.070000,0.052000,-0.011000
2.991000,-0.070000,0.051000,-0.011000
3.011000,-0.070000,0.051000,-0.011000
3.031000,-0.070000,0.051000,-0.011000
3.051000,-0.070000,0.051000,-0.011000
3.071000,-0.069000,0.051000,-0.011000
3.091000,-0.068000,0.050000,-0.011000
3.111000,-0.067000,0.050000,-0.011000
3.131000,-0.067000,0.050000,-0.011000
3.151000,-0.069000,0.049000,-0.011000
3.171000,-0.069000,0.049000,-0.011000
3.191000,-0.070000,0.049000,-0.011000
3.211000,-0.070000,0.049000,-0.011000
3.231000,-0.069000,0.049000,-0.011000
3.251000,-0.068000,0.049000,-0.011000
3.271000,-0.067000,0.049000,-0.011000
3.291000,-0.065000,0.049000,-0.011000
3.311000,-0.065000,0.049000,-0.011000
3.331000,-0.065000,0.049000,-0.011000
3.351000,-0.066000,0.048000,-0.011000
3.371000,-0.067000,0.048000,-0.011000
3.391000,-0.067000,0.048000,-0.011000
3.411000,-0.067000,0.048000,-0.011000
3.431000,-0.068000,0.048000,-0.011000
3.451000,-0.068000,0.048000,-0.011000
3.471000,-0.068000,0.048000,-0.011000
3.491000,-0.067000,0.048000,-0.011000
3.511000,-0.067000,0.048000,-0.011000
3.531000,-0.067000,0.047000,-0.011000
3.551000,-0.067000,0.047000,-0.011000
3.571000,-0.067000,0.047000,-0.011000
3.591000,-0.068000,0.047000,-0.012000
3.611000,-0.068000,0.047000,-0.012000
3.631000,-0.067000,0.047000,-0.012000
3.651000,-0.067000,0.047000,-0.012000
3.671000,-0.067000,0.047000,-0.012000
3.691000,-0.067000,0.046000,-0.012000
3.711000,-0.068000,0.046000,-0.012000
3.731000,-0.068000,0.046000,-0.012000
3.751000,-0.068000,0.046000,-0.012000
3.771000,-0.068000,0.046000,-0.012000
3.791000,-0.068000,0.045000,-0.012000
3.811000,-0.068000,0.045000,-0.012000
3.831000,-0.068000,0.045000,-0.012000
3.851000,-0.068000,0.045000,-0.012000
3.871000,-0.067000,0.045000,-0.012000
3.891000,-0.067000,0.045000,-0.012000
3.911000,-0.067000,0.044000,-0.012000
3.931000,-0.068000,0.044000,-0.012000
3.951000,-0.068000,0.044000,-0.012000
3.971000,-0.067000,0.044000,-0.012000
3.991000,-0.067000,0.044000,-0.012000
4.011000,-0.067000,0.043000,-0.012000
4.031000,-0.067000,0.043000,-0.012000
4.051000,-0.067000,0.043000,-0.012000
4.071000,-0.067000,0.043000,-0.013000
4.091000,-0.067000,0.043000,-0.013000
4.111000,-0.067000,0.042000,-0.013000
4.131000,-0.066000,0.042000,-0.013000
4.151000,-0.066000,0.042000,-0.013000
4.171000,-0.067000,0.042000,-0.013000
4.191000,-0.067000,0.041000,-0.013000
4.211000,-0.068000,0.041000,-0.013000
4.231000,-0.068000,0.041000,-0.013000
4.251000,-0.068000,0.041000,-0.013000
4.271000,-0.068000,0.040000,-0.013000
4.291000,-0.067000,0.040000,-0.013000
4.311000,-0.067000,0.040000,-0.013000
4.331000,-0.066000,0.040000,-0.013000
4.351000,-0.066000,0.040000,-0.013000
4.371000,-0.066000,0.039000,-0.013000
4.391000,-0.067000,0.039000,-0.013000
4.411000,-0.067000,0.039000,-0.013000
4.431000,-0.067000,0.038000,-0.012000
4.451000,-0.067000,0.038000,-0.012000
4.471000,-0.066000,0.038000,-0.013000
4.491000,-0.066000,0.038000,-0.013000
4.511000,-0.066000,0.038000,-0.013000
4.531000,-0.066000,0.038000,-0.013000
4.551000,-0.066000,0.037000,-0.013000
4.571000,-0.066000,0.037000,-0.013000
4.591000,-0.066000,0.037000,-0.013000
4.611000,-0.066000,0.037000,-0.013000
4.631000,-0.066000,0.036000,-0.013000
4.651000,-0.066000,0.036000,-0.013000
4.671000,-0.066000,0.036000,-0.013000
4.691000,-0.067000,0.036000,-0.013000
4.711000,-0.067000,0.035000,-0.013000
4.731000,-0.067000,0.035000,-0.013000
4.751000,-0.068000,0.035000,-0.013000
4.771000,-0.068000,0.034000,-0.013000
4.791000,-0.069000,0.034000,-0.013000
4.811000,-0.069000,0.034000,-0.013000
4.831000,-0.069000,0.034000,-0.013000
4.851000,-0.068000,0.033000,-0.013000
4.871000,-0.068000,0.033000,-0.013000
4.891000,-0.069000,0.033000,-0.013000
4.911000,-0.069000,0.033000,-0.013000
4.931000,-0.069000,0.033000,-0.013000
4.951000,-0.069000,0.033000,-0.013000
4.971000,-0.068000,0.032000,-0.013000
4.991000,-0.068000,0.032000,-0.013000
5.011000,-0.067000,0.032000,-0.013000
5.031000,-0.067000,0.032000,-0.013000
5.051000,-0.067000,0.032000,-0.013000
5.071000,-0.067000,0.032000,-0.013000
5.091000,-0.067000,0.032000,-0.013000
5.111000,-0.067000,0.032000,-0.013000
5.131000,-0.066000,0.032000,-0.013000
5.151000,-0.066000,0.032000,-0.013000
5.171000,-0.066000,0.032000,-0.013000
5.191000,-0.066000,0.032000,-0.013000
5.211000,-0.065000,0.032000,-0.014000
5.231000,-0.065000,0.032000,-0.014000
5.251000,-0.064000,0.032000,-0.014000
5.271000,-0.063000,0.033000,-0.014000
5.291000,-0.061000,0.033000,-0.014000
5.311000,-0.059000,0.034000,-0.014000
5.331000,-0.058000,0.034000,-0.014000
5.351000,-0.058000,0.034000,-0.014000
5.371000,-0.059000,0.034000,-0.013000
5.391000,-0.060000,0.034000,-0.013000
5.411000,-0.061000,0.034000,-0.013000
5.431000,-0.061000,0.034000,-0.012000
5.451000,-0.060000,0.035000,-0.012000
5.471000,-0.060000,0.035000,-0.012000
5.491000,-0.061000,0.036000,-0.012000
5.511000,-0.061000,0.037000,-0.012000
5.531000,-0.063000,0.036000,-0.011000
5.551000,-0.069000,0.034000,-0.010000
5.571000,-0.077000,0.030000,-0.009000
5.591000,-0.085000,0.026000,-0.010000
5.611000,-0.090000,0.022000,-0.011000
5.631000,-0.090000,0.019000,-0.013000
5.651000,-0.088000,0.018000,-0.014000
5.671000,-0.087000,0.017000,-0.016000
5.691000,-0.084000,0.017000,-0.017000
5.711000,-0.079000,0.016000,-0.019000
5.731000,-0.073000,0.014000,-0.020000
5.751000,-0.069000,0.013000,-0.022000
5.771000,-0.066000,0.012000,-0.024000
5.791000,-0.062000,0.011000,-0.026000
5.811000,-0.056000,0.009000,-0.027000
5.831000,-0.052000,0.007000,-0.028000
5.851000,-0.050000,0.006000,-0.029000
5.871000,-0.050000,0.003000,-0.031000
5.891000,-0.048000,-0.001000,-0.033000
5.911000,-0.048000,-0.005000,-0.036000
5.931000,-0.047000,-0.009000,-0.038000
5.951000,-0.046000,-0.013000,-0.041000
5.971000,-0.045000,-0.019000,-0.043000
5.991000,-0.045000,-0.026000,-0.046000
