gyro_time_list,gyro_x_list,gyro_y_list,gyro_z_list
0.016000,0.017000,0.243000,0.229000
0.036000,0.023000,0.236000,0.223000
0.056000,0.042000,0.217000,0.244000
0.076000,0.003000,0.190000,0.246000
0.096000,-0.061000,0.201000,0.262000
0.116000,-0.111000,0.213000,0.302000
0.136000,-0.126000,0.227000,0.341000
0.156000,-0.094000,0.254000,0.390000
0.176000,-0.045000,0.292000,0.449000
0.196000,-0.024000,0.330000,0.507000
0.216000,-0.036000,0.365000,0.566000
0.236000,-0.069000,0.399000,0.631000
0.256000,-0.109000,0.433000,0.699000
0.276000,-0.162000,0.465000,0.766000
0.296000,-0.208000,0.485000,0.833000
0.316000,-0.212000,0.493000,0.908000
0.336000,-0.181000,0.498000,0.989000
0.356000,-0.136000,0.506000,1.067000
0.376000,-0.089000,0.515000,1.146000
0.396000,-0.053000,0.523000,1.224000
0.416000,-0.040000,0.530000,1.295000
0.436000,-0.047000,0.536000,1.360000
0.456000,-0.053000,0.540000,1.421000
0.476000,-0.047000,0.539000,1.480000
0.496000,-0.043000,0.533000,1.530000
0.516000,-0.052000,0.523000,1.571000
0.536000,-0.069000,0.510000,1.606000
0.556000,-0.084000,0.496000,1.635000
0.576000,-0.094000,0.480000,1.659000
0.596000,-0.103000,0.463000,1.677000
0.616000,-0.117000,0.444000,1.690000
0.636000,-0.140000,0.424000,1.695000
0.656000,-0.161000,0.402000,1.694000
0.676000,-0.175000,0.376000,1.687000
0.696000,-0.182000,0.349000,1.676000
0.716000,-0.186000,0.323000,1.661000
0.736000,-0.187000,0.294000,1.643000
0.756000,-0.188000,0.259000,1.621000
0.776000,-0.192000,0.220000,1.594000
0.796000,-0.192000,0.180000,1.565000
0.816000,-0.185000,0.140000,1.535000
0.836000,-0.170000,0.100000,1.504000
0.856000,-0.156000,0.060000,1.472000
0.876000,-0.146000,0.018000,1.438000
0.896000,-0.143000,-0.025000,1.401000
0.916000,-0.148000,-0.061000,1.361000
0.936000,-0.162000,-0.090000,1.321000
0.956000,-0.194000,-0.114000,1.279000
0.976000,-0.247000,-0.135000,1.236000
0.996000,-0.324000,-0.153000,1.195000
1.016000,-0.422000,-0.165000,1.156000
1.036000,-0.543000,-0.179000,1.113000
1.056000,-0.655000,-0.198000,1.063000
1.076000,-0.703000,-0.200000,0.989000
1.096000,-0.704000,-0.162000,0.896000
1.116000,-0.718000,-0.080000,0.792000
1.136000,-0.709000,0.031000,0.720000
1.156000,-0.716000,0.182000,0.698000
1.176000,-0.667000,0.327000,0.707000
1.196000,-0.496000,0.145000,0.756000
1.216000,-0.306000,-0.068000,0.754000
1.236000,-0.177000,-0.294000,0.599000
1.256000,-0.261000,-0.530000,0.505000
1.276000,-0.455000,-0.657000,0.515000
1.296000,-0.658000,-0.883000,0.531000
1.316000,-0.838000,-1.115000,0.650000
1.336000,-0.801000,-1.278000,0.794000
1.356000,-0.608000,-1.233000,0.819000
1.376000,-0.376000,-0.993000,0.760000
1.396000,-0.214000,-0.643000,0.694000
1.416000,-0.121000,-0.287000,0.637000
1.436000,-0.046000,0.038000,0.610000
1.456000,0.070000,0.313000,0.618000
1.476000,0.176000,0.610000,0.634000
1.496000,0.249000,0.951000,0.641000
1.516000,0.363000,1.222000,0.656000
1.536000,0.475000,1.265000,0.662000
1.556000,0.449000,1.113000,0.645000
1.576000,0.398000,0.895000,0.589000
1.596000,0.394000,0.695000,0.554000
1.616000,0.418000,0.528000,0.524000
1.636000,0.425000,0.387000,0.501000
1.656000,0.383000,0.302000,0.488000
1.676000,0.288000,0.282000,0.476000
1.696000,0.173000,0.297000,0.468000
1.716000,0.072000,0.322000,0.462000
1.736000,0.010000,0.336000,0.460000
1.756000,-0.005000,0.339000,0.453000
1.776000,0.034000,0.328000,0.438000
1.796000,0.090000,0.306000,0.417000
1.816000,0.129000,0.288000,0.393000
1.836000,0.140000,0.273000,0.369000
1.856000,0.142000,0.258000,0.346000
1.876000,0.155000,0.251000,0.326000
1.896000,0.182000,0.251000,0.311000
1.916000,0.212000,0.251000,0.299000
1.936000,0.225000,0.244000,0.289000
1.956000,0.215000,0.233000,0.278000
1.976000,0.190000,0.226000,0.270000
1.996000,0.160000,0.221000,0.261000
2.016000,0.133000,0.214000,0.253000
2.036000,0.107000,0.203000,0.245000
2.056000,0.091000,0.193000,0.236000
2.076000,0.088000,0.185000,0.225000
2.096000,0.095000,0.179000,0.214000
2.116000,0.104000,0.172000,0.202000
2.136000,0.113000,0.166000,0.192000
2.156000,0.125000,0.162000,0.184000
2.176000,0.137000,0.159000,0.179000
2.196000,0.144000,0.155000,0.174000
2.216000,0.140000,0.150000,0.170000
2.236000,0.128000,0.146000,0.166000
2.256000,0.113000,0.142000,0.162000
2.276000,0.100000,0.139000,0.159000
2.296000,0.093000,0.136000,0.157000
2.316000,0.088000,0.133000,0.155000
2.336000,0.082000,0.131000,0.152000
2.356000,0.078000,0.127000,0.149000
2.376000,0.074000,0.124000,0.146000
2.396000,0.068000,0.121000,0.142000
2.416000,0.059000,0.119000,0.139000
2.436000,0.051000,0.117000,0.135000
2.456000,0.046000,0.115000,0.131000
2.476000,0.042000,0.113000,0.127000
2.496000,0.038000,0.111000,0.124000
2.516000,0.032000,0.108000,0.120000
2.536000,0.025000,0.106000,0.116000
2.556000,0.020000,0.102000,0.114000
2.576000,0.021000,0.100000,0.112000
2.596000,0.022000,0.099000,0.110000
2.616000,0.021000,0.097000,0.107000
2.636000,0.020000,0.095000,0.105000
2.656000,0.018000,0.094000,0.103000
2.676000,0.016000,0.093000,0.101000
2.696000,0.013000,0.092000,0.099000
2.716000,0.012000,0.091000,0.097000
2.736000,0.010000,0.089000,0.094000
2.756000,0.007000,0.088000,0.092000
2.776000,0.004000,0.087000,0.090000
2.796000,0.000000,0.085000,0.089000
2.816000,-0.002000,0.084000,0.087000
2.836000,-0.005000,0.083000,0.086000
2.856000,-0.008000,0.082000,0.084000
2.876000,-0.010000,0.081000,0.083000
2.896000,-0.013000,0.080000,0.081000
2.916000,-0.015000,0.080000,0.079000
2.936000,-0.017000,0.079000,0.078000
2.956000,-0.018000,0.078000,0.076000
2.976000,-0.018000,0.077000,0.075000
2.996000,-0.019000,0.076000,0.073000
3.016000,-0.020000,0.075000,0.072000
3.036000,-0.022000,0.074000,0.071000
3.056000,-0.024000,0.073000,0.070000
3.076000,-0.025000,0.072000,0.068000
3.096000,-0.025000,0.072000,0.067000
3.116000,-0.025000,0.071000,0.066000
3.136000,-0.026000,0.070000,0.065000
3.156000,-0.027000,0.070000,0.064000
3.176000,-0.028000,0.069000,0.063000
3.196000,-0.028000,0.068000,0.061000
3.216000,-0.028000,0.068000,0.060000
3.236000,-0.029000,0.067000,0.059000
3.256000,-0.030000,0.066000,0.058000
3.276000,-0.032000,0.066000,0.057000
3.296000,-0.033000,0.065000,0.056000
3.316000,-0.033000,0.064000,0.055000
3.336000,-0.033000,0.064000,0.054000
3.356000,-0.033000,0.063000,0.053000
3.376000,-0.033000,0.063000,0.052000
3.396000,-0.034000,0.062000,0.051000
3.416000,-0.035000,0.062000,0.050000
3.436000,-0.035000,0.061000,0.049000
3.456000,-0.036000,0.061000,0.048000
3.476000,-0.036000,0.060000,0.047000
3.496000,-0.037000,0.060000,0.046000
3.516000,-0.037000,0.059000,0.045000
3.536000,-0.037000,0.059000,0.044000
3.556000,-0.037000,0.058000,0.043000
3.576000,-0.037000,0.057000,0.042000
3.596000,-0.037000,0.057000,0.042000
3.616000,-0.038000,0.056000,0.041000
3.636000,-0.039000,0.056000,0.041000
3.656000,-0.039000,0.056000,0.040000
3.676000,-0.039000,0.055000,0.039000
3.696000,-0.039000,0.055000,0.039000
3.716000,-0.040000,0.054000,0.038000
3.736000,-0.041000,0.054000,0.038000
3.756000,-0.042000,0.054000,0.037000
3.776000,-0.043000,0.053000,0.037000
3.796000,-0.043000,0.053000,0.036000
3.816000,-0.043000,0.053000,0.036000
3.836000,-0.044000,0.052000,0.035000
3.856000,-0.044000,0.052000,0.035000
3.876000,-0.044000,0.052000,0.034000
3.896000,-0.044000,0.052000,0.034000
3.916000,-0.045000,0.051000,0.033000
3.936000,-0.045000,0.051000,0.033000
3.956000,-0.045000,0.051000,0.032000
3.976000,-0.045000,0.051000,0.032000
3.996000,-0.045000,0.051000,0.031000
4.016000,-0.045000,0.050000,0.031000
4.036000,-0.045000,0.050000,0.030000
4.056000,-0.045000,0.050000,0.030000
4.076000,-0.045000,0.050000,0.030000
4.096000,-0.045000,0.049000,0.029000
4.116000,-0.046000,0.049000,0.029000
4.136000,-0.045000,0.049000,0.028000
4.156000,-0.045000,0.049000,0.028000
4.176000,-0.045000,0.048000,0.027000
4.196000,-0.046000,0.048000,0.027000
4.216000,-0.047000,0.048000,0.027000
4.236000,-0.047000,0.048000,0.026000
4.256000,-0.046000,0.047000,0.026000
4.276000,-0.046000,0.047000,0.025000
4.296000,-0.046000,0.047000,0.025000
4.316000,-0.046000,0.047000,0.025000
4.336000,-0.046000,0.046000,0.024000
4.356000,-0.047000,0.046000,0.024000
4.376000,-0.046000,0.046000,0.023000
4.396000,-0.046000,0.046000,0.023000
4.416000,-0.046000,0.045000,0.022000
4.436000,-0.046000,0.045000,0.022000
4.456000,-0.046000,0.045000,0.022000
4.476000,-0.047000,0.045000,0.021000
4.496000,-0.047000,0.044000,0.021000
4.516000,-0.047000,0.044000,0.021000
4.536000,-0.047000,0.044000,0.020000
4.556000,-0.047000,0.044000,0.020000
4.576000,-0.047000,0.044000,0.020000
4.596000,-0.047000,0.044000,0.019000
4.616000,-0.047000,0.043000,0.019000
4.636000,-0.047000,0.043000,0.019000
4.656000,-0.048000,0.043000,0.018000
4.676000,-0.048000,0.043000,0.018000
4.696000,-0.048000,0.042000,0.018000
4.716000,-0.048000,0.042000,0.017000
4.736000,-0.047000,0.042000,0.017000
4.756000,-0.047000,0.042000,0.017000
4.776000,-0.048000,0.042000,0.017000
4.796000,-0.048000,0.041000,0.016000
4.816000,-0.048000,0.041000,0.016000
4.836000,-0.048000,0.041000,0.016000
4.856000,-0.048000,0.041000,0.015000
4.876000,-0.048000,0.041000,0.015000
4.896000,-0.048000,0.041000,0.015000
4.916000,-0.048000,0.040000,0.014000
4.936000,-0.048000,0.040000,0.014000
4.956000,-0.049000,0.040000,0.014000
4.976000,-0.049000,0.040000,0.014000
4.996000,-0.049000,0.040000,0.013000
5.016000,-0.049000,0.040000,0.013000
5.036000,-0.049000,0.039000,0.013000
5.056000,-0.049000,0.039000,0.013000
5.076000,-0.049000,0.039000,0.012000
5.096000,-0.049000,0.039000,0.012000
5.116000,-0.049000,0.039000,0.012000
5.136000,-0.050000,0.038000,0.011000
5.156000,-0.050000,0.038000,0.011000
5.176000,-0.049000,0.038000,0.011000
5.196000,-0.049000,0.038000,0.010000
5.216000,-0.048000,0.038000,0.010000
5.236000,-0.048000,0.038000,0.010000
5.256000,-0.048000,0.038000,0.009000
5.276000,-0.048000,0.038000,0.009000
5.296000,-0.048000,0.038000,0.009000
5.316000,-0.047000,0.038000,0.008000
5.336000,-0.047000,0.038000,0.008000
5.356000,-0.046000,0.038000,0.007000
5.376000,-0.046000,0.038000,0.007000
5.396000,-0.045000,0.038000,0.006000
5.416000,-0.044000,0.039000,0.006000
5.436000,-0.044000,0.039000,0.005000
5.456000,-0.043000,0.040000,0.005000
5.476000,-0.043000,0.041000,0.005000
5.496000,-0.043000,0.041000,0.004000
5.516000,-0.042000,0.041000,0.004000
5.536000,-0.041000,0.041000,0.004000
5.556000,-0.042000,0.041000,0.004000
5.576000,-0.042000,0.041000,0.003000
5.596000,-0.043000,0.040000,0.003000
5.616000,-0.043000,0.040000,0.003000
5.636000,-0.044000,0.040000,0.003000
5.656000,-0.045000,0.039000,0.003000
5.676000,-0.047000,0.038000,0.002000
5.696000,-0.047000,0.036000,0.002000
5.716000,-0.047000,0.033000,0.001000
5.736000,-0.048000,0.030000,0.000000
5.756000,-0.051000,0.027000,-0.001000
5.776000,-0.053000,0.024000,-0.002000
5.796000,-0.056000,0.021000,-0.002000
5.816000,-0.059000,0.017000,-0.003000
5.836000,-0.062000,0.011000,-0.004000
5.856000,-0.064000,0.005000,-0.007000
5.876000,-0.064000,0.000000,-0.009000
5.896000,-0.062000,-0.005000,-0.012000
5.916000,-0.059000,-0.008000,-0.013000
5.936000,-0.056000,-0.010000,-0.014000
5.956000,-0.051000,-0.010000,-0.013000
5.976000,-0.046000,-0.009000,-0.013000
5.996000,-0.040000,-0.008000,-0.014000
6.016000,-0.032000,-0.006000,-0.016000
6.036000,-0.023000,-0.005000,-0.017000
6.056000,-0.016000,-0.002000,-0.018000
6.076000,-0.013000,0.000000,-0.018000
6.096000,-0.014000,0.002000,-0.019000
6.116000,-0.018000,0.003000,-0.020000
6.136000,-0.024000,0.004000,-0.021000
6.156000,-0.030000,0.006000,-0.022000
6.176000,-0.037000,0.008000,-0.021000
6.196000,-0.046000,0.009000,-0.021000
6.216000,-0.055000,0.010000,-0.020000
6.236000,-0.063000,0.011000,-0.019000
6.256000,-0.070000,0.013000,-0.018000
6.276000,-0.075000,0.015000,-0.017000
6.296000,-0.076000,0.017000,-0.017000
6.316000,-0.073000,0.021000,-0.017000
6.336000,-0.070000,0.025000,-0.019000
6.356000,-0.070000,0.029000,-0.023000
6.376000,-0.071000,0.033000,-0.029000
6.396000,-0.070000,0.037000,-0.035000
6.416000,-0.069000,0.042000,-0.041000
6.436000,-0.071000,0.048000,-0.048000
6.456000,-0.071000,0.053000,-0.055000
6.476000,-0.071000,0.058000,-0.062000
6.496000,-0.073000,0.064000,-0.070000
6.516000,-0.076000,0.072000,-0.076000
6.536000,-0.078000,0.079000,-0.082000
6.556000,-0.078000,0.086000,-0.087000
6.576000,-0.076000,0.093000,-0.091000
6.596000,-0.075000,0.100000,-0.094000
6.616000,-0.075000,0.107000,-0.097000
6.636000,-0.074000,0.112000,-0.101000
6.656000,-0.072000,0.117000,-0.103000
6.676000,-0.070000,0.120000,-0.104000
6.696000,-0.070000,0.123000,-0.104000
6.716000,-0.071000,0.125000,-0.105000
6.736000,-0.072000,0.127000,-0.106000
6.756000,-0.073000,0.130000,-0.106000
6.776000,-0.074000,0.133000,-0.105000
6.796000,-0.076000,0.135000,-0.105000
6.816000,-0.077000,0.138000,-0.106000
6.836000,-0.078000,0.140000,-0.105000
6.856000,-0.078000,0.143000,-0.105000
6.876000,-0.078000,0.146000,-0.104000
6.896000,-0.079000,0.150000,-0.105000
6.916000,-0.079000,0.153000,-0.105000
6.936000,-0.079000,0.156000,-0.105000
6.956000,-0.078000,0.159000,-0.104000
6.976000,-0.077000,0.162000,-0.104000
6.996000,-0.077000,0.165000,-0.105000
7.016000,-0.078000,0.169000,-0.105000
7.036000,-0.079000,0.172000,-0.105000
7.056000,-0.079000,0.175000,-0.105000
7.076000,-0.080000,0.177000,-0.106000
7.096000,-0.081000,0.180000,-0.106000
7.116000,-0.082000,0.184000,-0.106000
7.136000,-0.082000,0.187000,-0.106000
7.156000,-0.081000,0.190000,-0.106000
7.176000,-0.082000,0.192000,-0.105000
7.196000,-0.083000,0.195000,-0.105000
7.216000,-0.085000,0.197000,-0.104000
7.236000,-0.085000,0.199000,-0.103000
7.256000,-0.085000,0.201000,-0.102000
7.276000,-0.085000,0.203000,-0.102000
7.296000,-0.086000,0.203000,-0.102000
7.316000,-0.088000,0.204000,-0.102000
7.336000,-0.087000,0.205000,-0.101000
7.356000,-0.086000,0.206000,-0.101000
7.376000,-0.085000,0.206000,-0.100000
7.396000,-0.085000,0.207000,-0.100000
7.416000,-0.083000,0.208000,-0.099000
7.436000,-0.082000,0.208000,-0.099000
7.456000,-0.080000,0.208000,-0.098000
7.476000,-0.080000,0.209000,-0.097000
7.496000,-0.080000,0.209000,-0.096000
7.516000,-0.080000,0.209000,-0.095000
7.536000,-0.079000,0.209000,-0.094000
7.556000,-0.078000,0.208000,-0.092000
7.576000,-0.078000,0.208000,-0.091000
7.596000,-0.079000,0.208000,-0.089000
7.616000,-0.079000,0.207000,-0.088000
7.636000,-0.080000,0.206000,-0.086000
7.656000,-0.081000,0.206000,-0.085000
7.676000,-0.081000,0.205000,-0.084000
7.696000,-0.081000,0.204000,-0.082000
7.716000,-0.081000,0.203000,-0.081000
7.736000,-0.082000,0.202000,-0.080000
7.756000,-0.082000,0.202000,-0.079000
7.776000,-0.082000,0.201000,-0.078000
7.796000,-0.082000,0.200000,-0.077000
7.816000,-0.082000,0.199000,-0.076000
7.836000,-0.082000,0.199000,-0.076000
7.856000,-0.081000,0.198000,-0.075000
7.876000,-0.080000,0.197000,-0.074000
7.896000,-0.079000,0.197000,-0.073000
7.916000,-0.079000,0.196000,-0.071000
7.936000,-0.080000,0.196000,-0.070000
7.956000,-0.079000,0.195000,-0.069000
7.976000,-0.079000,0.194000,-0.067000
7.996000,-0.080000,0.192000,-0.066000
