gyro_time_list,gyro_x_list,gyro_y_list,gyro_z_list
0.585,0.014922,-0.032109,0.059021
0.605,-0.029444,-0.039237,0.053892
0.625,-0.038831,-0.043923,0.059422
0.645,-0.06972,-0.041535,0.053323
0.665,-0.091902,-0.040901,0.039527
0.685,-0.089135,-0.036458,0.030273
0.705,-0.078871,-0.031662,0.023297
0.725,-0.074611,-0.026979,0.016859
0.745,-0.075938,-0.019194,0.009156
0.765,-0.075657,-0.00905,0.001193
0.785,-0.075597,0.000082,-0.007965
0.805,-0.075023,0.009552,-0.01591
0.825,-0.074785,0.017402,-0.022959
0.845,-0.073309,0.021129,-0.029054
0.865,-0.070118,0.023438,-0.030136
0.885,-0.068658,0.023033,-0.030996
0.905,-0.068947,0.022939,-0.030355
0.925,-0.069442,0.022181,-0.02887
0.945,-0.069603,0.018599,-0.027578
0.965,-0.071249,0.013767,-0.025863
0.985,-0.073052,0.010477,-0.023829
1.005,-0.073062,0.009168,-0.022183
1.025,-0.074052,0.009151,-0.020628
1.045,-0.073309,0.01027,-0.01927
1.065,-0.070526,0.012404,-0.018617
1.085,-0.067839,0.015078,-0.018457
1.105,-0.065418,0.017717,-0.017838
1.125,-0.066676,0.019406,-0.017839
1.145,-0.070491,0.02074,-0.017597
1.165,-0.072106,0.022134,-0.017421
1.185,-0.073058,0.023306,-0.017252
1.205,-0.073141,0.023791,-0.017718
1.225,-0.071146,0.024255,-0.017596
1.245,-0.070831,0.025112,-0.017369
1.265,-0.072041,0.024974,-0.016924
1.285,-0.073671,0.024484,-0.01542
1.305,-0.071651,0.023198,-0.014237
1.325,-0.068163,0.022284,-0.012632
1.345,-0.067762,0.021864,-0.010514
1.365,-0.068429,0.021659,-0.008546
1.385,-0.070818,0.021777,-0.007321
1.405,-0.074492,0.022718,-0.007296
1.425,-0.078261,0.024541,-0.008746
1.445,-0.081539,0.026002,-0.010663
1.465,-0.082886,0.026001,-0.013087
1.485,-0.083653,0.025395,-0.015885
1.505,-0.081378,0.02505,-0.017766
1.525,-0.077066,0.024766,-0.018811
1.545,-0.073366,0.024507,-0.018333
1.565,-0.072005,0.023936,-0.017147
1.585,-0.072304,0.023147,-0.015559
1.605,-0.073994,0.022461,-0.014063
1.625,-0.076207,0.022163,-0.013102
1.645,-0.077117,0.022172,-0.01254
1.665,-0.076132,0.022539,-0.012484
1.685,-0.075558,0.023466,-0.012952
1.705,-0.076486,0.024772,-0.0143
1.726,-0.074813,0.025947,-0.016088
1.746,-0.070312,0.026743,-0.017568
1.766,-0.067522,0.027353,-0.018433
1.786,-0.069731,0.028135,-0.018925
1.806,-0.072556,0.027717,-0.019596
1.826,-0.070483,0.027066,-0.019132
1.846,-0.06906,0.026166,-0.018269
1.866,-0.069587,0.024978,-0.017038
1.886,-0.069684,0.02428,-0.01528
1.906,-0.068877,0.023976,-0.013568
1.926,-0.06808,0.023978,-0.011897
1.946,-0.067467,0.024497,-0.01074
1.966,-0.067933,0.0258,-0.010053
1.986,-0.068196,0.025491,-0.010822
2.006,-0.068802,0.025348,-0.011131
2.026,-0.069618,0.02545,-0.011995
2.046,-0.070132,0.025835,-0.012844
2.066,-0.071802,0.026258,-0.013889
2.086,-0.073948,0.026894,-0.014989
2.106,-0.07495,0.027866,-0.01593
2.126,-0.074355,0.029066,-0.016529
2.146,-0.075051,0.0297,-0.017844
2.166,-0.073592,0.029874,-0.018936
2.186,-0.070617,0.030199,-0.020204
2.206,-0.06934,0.029462,-0.020955
2.226,-0.069269,0.028106,-0.021079
2.246,-0.069907,0.027197,-0.020619
2.266,-0.071495,0.026515,-0.020349
2.286,-0.072706,0.02553,-0.019837
2.306,-0.07342,0.024608,-0.018942
2.326,-0.073318,0.024461,-0.018273
2.346,-0.07146,0.025228,-0.017834
2.366,-0.068774,0.026132,-0.017705
2.386,-0.066402,0.026758,-0.017868
2.406,-0.064895,0.027596,-0.018178
2.426,-0.063282,0.028614,-0.018315
2.446,-0.062174,0.029561,-0.018249
2.466,-0.062069,0.030358,-0.017951
2.486,-0.062033,0.031008,-0.017375
2.506,-0.062747,0.031312,-0.016187
2.526,-0.065338,0.031517,-0.015277
2.546,-0.065108,0.030717,-0.014012
2.566,-0.062301,0.029568,-0.01288
2.851,-0.060651,0.029048,-0.012734
2.871,-0.060748,0.029006,-0.012632
2.891,-0.06275,0.029612,-0.012582
2.911,-0.063778,0.030504,-0.012746
2.931,-0.062051,0.031289,-0.012782
2.951,-0.059199,0.031762,-0.012716
2.971,-0.058363,0.031934,-0.012294
2.991,-0.06178,0.032604,-0.011762
3.011,-0.063513,0.032405,-0.011865
3.031,-0.063672,0.031178,-0.011239
3.051,-0.064944,0.029914,-0.010759
3.071,-0.067398,0.029315,-0.010686
3.091,-0.067949,0.029463,-0.010858
3.111,-0.066078,0.029726,-0.011169
3.131,-0.063461,0.030003,-0.011828
3.151,-0.061848,0.03032,-0.012151
3.171,-0.062722,0.029584,-0.012589
3.191,-0.062973,0.028143,-0.012193
3.211,-0.06287,0.026877,-0.012203
3.231,-0.062862,0.025799,-0.012135
3.251,-0.062244,0.024881,-0.011746
3.271,-0.0624,0.024321,-0.011237
3.291,-0.063332,0.024273,-0.011187
3.311,-0.06309,0.024233,-0.01137
3.331,-0.062756,0.024108,-0.011643
3.351,-0.06261,0.023602,-0.012044
3.371,-0.06245,0.023236,-0.011684
3.391,-0.062685,0.023119,-0.011104
3.411,-0.063801,0.023233,-0.01058
3.431,-0.065074,0.023461,-0.010058
3.451,-0.065352,0.023986,-0.010143
3.471,-0.064041,0.024809,-0.010574
3.491,-0.062289,0.02541,-0.011243
3.511,-0.061999,0.025532,-0.012187
3.531,-0.061233,0.025456,-0.012955
3.551,-0.059689,0.025393,-0.013731
3.571,-0.058772,0.025506,-0.014609
3.591,-0.058807,0.025629,-0.015222
3.611,-0.059441,0.02588,-0.015687
3.631,-0.06027,0.026057,-0.0162
3.651,-0.061477,0.02628,-0.016132
3.671,-0.06214,0.026227,-0.016227
3.691,-0.062662,0.026555,-0.016146
3.711,-0.061202,0.026518,-0.016253
3.731,-0.058204,0.026053,-0.015989
3.751,-0.057049,0.025453,-0.015601
3.771,-0.058303,0.025306,-0.015108
3.791,-0.058869,0.02567,-0.014619
3.811,-0.057948,0.026482,-0.013606
3.831,-0.058827,0.026714,-0.013195
3.851,-0.061989,0.026652,-0.012799
3.871,-0.064472,0.026388,-0.012884
3.891,-0.064362,0.025838,-0.012801
3.911,-0.063705,0.025449,-0.012991
3.931,-0.062949,0.02577,-0.013467
3.951,-0.061812,0.026474,-0.014236
3.971,-0.059999,0.027176,-0.014881
3.991,-0.057985,0.027666,-0.015382
4.011,-0.058072,0.027965,-0.015653
4.031,-0.060587,0.02831,-0.015486
4.051,-0.064269,0.028217,-0.015481
4.071,-0.062623,0.027422,-0.014488
4.091,-0.059309,0.026391,-0.013201
4.111,-0.06035,0.025459,-0.012037
4.131,-0.062511,0.024743,-0.011215
4.151,-0.062873,0.024324,-0.010642
4.171,-0.062744,0.024029,-0.010932
4.191,-0.061996,0.024045,-0.011215
4.211,-0.061881,0.024408,-0.011912
4.231,-0.062082,0.024965,-0.012651
4.251,-0.062014,0.024847,-0.013575
4.271,-0.062001,0.024186,-0.013833
4.291,-0.062887,0.023892,-0.01369
4.311,-0.065172,0.02369,-0.013761
4.331,-0.065593,0.02348,-0.01377
4.351,-0.063639,0.023121,-0.013791
4.371,-0.062646,0.023038,-0.014079
4.391,-0.062002,0.022793,-0.014298
4.411,-0.061578,0.022758,-0.014812
4.431,-0.062098,0.023162,-0.015409
4.451,-0.062303,0.02385,-0.01591
4.471,-0.061869,0.024344,-0.016345
4.491,-0.060922,0.02446,-0.01629
4.511,-0.059737,0.0237,-0.016219
4.531,-0.059084,0.022665,-0.015636
4.551,-0.059164,0.021718,-0.0149
4.571,-0.059552,0.021081,-0.014226
4.591,-0.059337,0.020536,-0.013848
4.611,-0.058569,0.020143,-0.013548
4.631,-0.059583,0.02019,-0.013431
4.651,-0.059742,0.020609,-0.013028
4.671,-0.058183,0.021092,-0.012322
4.691,-0.057525,0.02152,-0.01155
4.711,-0.058414,0.021975,-0.010938
4.731,-0.059241,0.022558,-0.010528
4.751,-0.060427,0.02337,-0.010714
4.771,-0.062311,0.023894,-0.01169
4.791,-0.062899,0.02406,-0.012624
4.811,-0.062252,0.024172,-0.0133
4.831,-0.061552,0.023891,-0.013742
4.992,-0.061712,0.023698,-0.013508
5.012,-0.0576,0.023114,-0.012389
5.032,-0.056447,0.022217,-0.011309
5.052,-0.05764,0.021611,-0.01033
5.072,-0.058752,0.021374,-0.00968
5.092,-0.060356,0.02084,-0.009686
5.112,-0.061498,0.020225,-0.009556
5.132,-0.06117,0.019823,-0.009311
5.152,-0.060274,0.019597,-0.009059
5.172,-0.060911,0.019978,-0.009338
5.192,-0.061789,0.020868,-0.010162
5.212,-0.060521,0.021725,-0.011129
5.232,-0.057639,0.022541,-0.012096
5.252,-0.054943,0.023244,-0.012646
5.272,-0.054503,0.023824,-0.01346
5.292,-0.054891,0.024208,-0.014188
5.312,-0.055145,0.024663,-0.013982
5.332,-0.0567,0.024857,-0.014484
5.352,-0.054487,0.023953,-0.014136
5.372,-0.051613,0.022577,-0.012976
5.392,-0.052013,0.021293,-0.012041
5.412,-0.053807,0.020727,-0.011142
5.432,-0.055179,0.020676,-0.010407
5.452,-0.055092,0.021422,-0.010062
5.472,-0.053669,0.021807,-0.010596
5.492,-0.052394,0.021825,-0.010957
5.512,-0.051771,0.021528,-0.011382
5.532,-0.052321,0.021118,-0.01162
5.552,-0.053187,0.020884,-0.011951
5.572,-0.052706,0.020895,-0.012286
5.592,-0.051542,0.021105,-0.012703
5.612,-0.050591,0.02128,-0.01313
5.632,-0.050041,0.021356,-0.013107
5.652,-0.052341,0.021239,-0.013081
5.672,-0.054076,0.020394,-0.013243
5.692,-0.053361,0.019483,-0.012838
5.712,-0.053348,0.01856,-0.012166
5.732,-0.054306,0.017793,-0.01171
5.752,-0.056173,0.017332,-0.011014
5.772,-0.057378,0.01709,-0.010877
5.792,-0.057688,0.016926,-0.010683
5.812,-0.058541,0.017419,-0.010704
5.832,-0.058231,0.017912,-0.011096
5.852,-0.056162,0.018562,-0.011411
5.872,-0.054973,0.018997,-0.011958
5.892,-0.054591,0.019274,-0.012768
5.912,-0.05307,0.019591,-0.013341
5.932,-0.052076,0.020181,-0.013895
5.952,-0.052132,0.020935,-0.014741
5.972,-0.052243,0.021689,-0.015087
5.992,-0.05565,0.021787,-0.015868
6.012,-0.057941,0.020177,-0.016386
6.032,-0.058158,0.018868,-0.01586
6.052,-0.058818,0.017976,-0.015021
6.072,-0.059596,0.017522,-0.014176
6.092,-0.060526,0.017541,-0.01333
6.112,-0.061528,0.018235,-0.013415
6.132,-0.060161,0.018808,-0.014042
6.152,-0.057505,0.019684,-0.014097
6.172,-0.055358,0.020577,-0.014244
6.192,-0.054413,0.021433,-0.014221
6.212,-0.054563,0.022275,-0.01405
6.232,-0.055175,0.023356,-0.013919
6.252,-0.055802,0.024582,-0.014065
6.272,-0.055368,0.025651,-0.014193
6.292,-0.054313,0.026395,-0.014875
6.312,-0.053315,0.026764,-0.015296
6.332,-0.052857,0.027167,-0.015455
6.352,-0.053589,0.027732,-0.015461
6.372,-0.054829,0.027836,-0.015591
6.392,-0.05606,0.028122,-0.01587
6.412,-0.053689,0.028094,-0.015938
6.432,-0.049766,0.027653,-0.015631
6.452,-0.049771,0.026904,-0.015219
6.472,-0.051914,0.025298,-0.014912
6.492,-0.053402,0.023151,-0.014193
6.512,-0.054843,0.021654,-0.013333
6.532,-0.055545,0.020743,-0.012491
6.552,-0.056051,0.020498,-0.011942
6.572,-0.05682,0.020696,-0.012077
6.592,-0.05635,0.021217,-0.012713
6.612,-0.054919,0.02224,-0.01357
6.632,-0.053569,0.023406,-0.014835
6.652,-0.052659,0.024426,-0.015932
6.672,-0.052013,0.025369,-0.017044
6.692,-0.051386,0.026321,-0.017817
6.712,-0.050299,0.026862,-0.018482
6.732,-0.0486,0.026664,-0.018804
6.752,-0.04772,0.025353,-0.019006
6.772,-0.049322,0.024142,-0.018973
6.792,-0.050389,0.023743,-0.01887
6.812,-0.049685,0.023491,-0.018881
6.832,-0.04924,0.023177,-0.018627
6.852,-0.049642,0.022758,-0.018461
6.872,-0.050907,0.022566,-0.018084
6.892,-0.053148,0.022831,-0.018074
6.912,-0.056012,0.022866,-0.018477
6.932,-0.057473,0.022306,-0.018357
6.952,-0.056455,0.021597,-0.017733
6.972,-0.054767,0.020708,-0.016969
7.144,-0.053552,0.020547,-0.017315
7.164,-0.051598,0.020206,-0.017109
7.184,-0.050377,0.020237,-0.016931
7.204,-0.051235,0.020795,-0.016642
7.224,-0.053816,0.021757,-0.016226
7.244,-0.057733,0.022303,-0.016118
7.264,-0.059828,0.022382,-0.015368
7.284,-0.059658,0.021937,-0.014968
7.304,-0.059316,0.02169,-0.014476
7.324,-0.06113,0.021828,-0.014623
7.344,-0.062449,0.02192,-0.015027
7.364,-0.060839,0.021823,-0.015222
7.384,-0.058748,0.021939,-0.0152
7.404,-0.058882,0.022177,-0.015489
7.424,-0.059285,0.022112,-0.014739
7.444,-0.060568,0.021706,-0.014416
7.464,-0.059634,0.020992,-0.013585
7.484,-0.057591,0.020004,-0.013012
7.504,-0.056891,0.019102,-0.012425
7.524,-0.057339,0.018345,-0.012008
7.544,-0.05736,0.017865,-0.011348
7.564,-0.056979,0.017841,-0.010808
7.584,-0.057334,0.018153,-0.010664
7.604,-0.058498,0.018295,-0.010916
7.624,-0.05791,0.018139,-0.011125
7.644,-0.055579,0.017972,-0.011009
7.664,-0.052829,0.017851,-0.010943
7.684,-0.050859,0.017819,-0.011078
7.704,-0.048988,0.017544,-0.011518
7.724,-0.046759,0.017191,-0.011973
7.744,-0.044313,0.016782,-0.012581
7.764,-0.042519,0.016255,-0.01331
7.784,-0.041235,0.016012,-0.01377
7.804,-0.04196,0.01626,-0.013793
7.824,-0.045046,0.016314,-0.013882
7.844,-0.046559,0.0163,-0.013741
7.864,-0.047384,0.01624,-0.01362
7.884,-0.048247,0.015919,-0.013375
7.904,-0.050325,0.015645,-0.012804
7.924,-0.052786,0.015653,-0.012254
7.944,-0.053553,0.016068,-0.01158
7.964,-0.054558,0.016834,-0.011347
7.984,-0.058249,0.017477,-0.011737
8.004,-0.060866,0.017742,-0.012255
8.024,-0.059971,0.017944,-0.012104
8.044,-0.058539,0.01807,-0.011709
8.064,-0.058727,0.018217,-0.011652
8.084,-0.058543,0.018257,-0.01186
8.104,-0.056944,0.018155,-0.01232
8.124,-0.054869,0.018214,-0.012698
8.144,-0.054358,0.018465,-0.013281
8.164,-0.056151,0.018997,-0.013842
8.184,-0.056264,0.018961,-0.014088
8.204,-0.054445,0.018625,-0.013812
8.224,-0.055332,0.017744,-0.013466
8.244,-0.057021,0.016901,-0.012696
8.264,-0.059085,0.016323,-0.012027
8.284,-0.061489,0.015997,-0.011596
8.304,-0.064429,0.016254,-0.011387
8.324,-0.066213,0.016804,-0.011458
8.344,-0.064473,0.017613,-0.011426
8.364,-0.061937,0.017973,-0.01172
8.384,-0.061317,0.018193,-0.012599
8.404,-0.059885,0.018483,-0.01316
8.424,-0.057574,0.018749,-0.013615
8.444,-0.057114,0.018869,-0.01386
8.464,-0.058189,0.018991,-0.014085
8.484,-0.058629,0.018871,-0.014344
8.504,-0.056494,0.01854,-0.01429
8.524,-0.055576,0.018069,-0.014401
8.544,-0.05601,0.017781,-0.014513
8.564,-0.055623,0.017658,-0.014461
8.584,-0.054939,0.017666,-0.014205
8.604,-0.055192,0.017868,-0.014112
8.624,-0.057338,0.01867,-0.014335
8.644,-0.060306,0.01957,-0.0153
8.664,-0.060233,0.020253,-0.015822
8.684,-0.057275,0.020482,-0.016021
8.704,-0.055274,0.020514,-0.016213
8.724,-0.054212,0.02057,-0.016401
8.744,-0.053316,0.020864,-0.01614
8.764,-0.055727,0.021087,-0.016719
8.784,-0.054906,0.020672,-0.017266
8.804,-0.05034,0.019861,-0.017482
8.824,-0.047882,0.019368,-0.017614
8.844,-0.048894,0.019117,-0.018212
8.864,-0.049598,0.018635,-0.018941
8.884,-0.047538,0.018365,-0.018859
8.904,-0.044639,0.018188,-0.018158
8.924,-0.04416,0.018248,-0.017758
8.944,-0.045882,0.018959,-0.01796
8.964,-0.046136,0.02004,-0.018593
8.984,-0.043566,0.021458,-0.019385
9.004,-0.039637,0.023065,-0.020418
9.024,-0.034977,0.024642,-0.021645
9.044,-0.030691,0.025971,-0.02317
9.064,-0.027504,0.02685,-0.024779
9.084,-0.024879,0.027308,-0.026153
9.104,-0.023125,0.027336,-0.027196
9.124,-0.022671,0.027578,-0.027715
