gyro_time_list,gyro_x_list,gyro_y_list,gyro_z_list
0.016000,-0.077000,-0.026000,0.155000
0.036000,-0.093000,0.004000,0.142000
0.056000,-0.077000,0.048000,0.171000
0.076000,-0.062000,0.107000,0.204000
0.096000,-0.049000,0.162000,0.221000
0.116000,-0.029000,0.242000,0.303000
0.136000,-0.076000,0.325000,0.398000
0.156000,-0.177000,0.417000,0.467000
0.176000,-0.278000,0.523000,0.535000
0.196000,-0.365000,0.640000,0.611000
0.216000,-0.458000,0.765000,0.687000
0.236000,-0.567000,0.884000,0.757000
0.256000,-0.671000,0.988000,0.829000
0.276000,-0.756000,1.081000,0.903000
0.296000,-0.855000,1.166000,0.970000
0.316000,-0.990000,1.239000,1.024000
0.336000,-1.146000,1.298000,1.072000
0.356000,-1.312000,1.348000,1.121000
0.376000,-1.482000,1.385000,1.171000
0.396000,-1.631000,1.408000,1.227000
0.416000,-1.732000,1.416000,1.292000
0.436000,-1.786000,1.412000,1.361000
0.456000,-1.803000,1.399000,1.426000
0.476000,-1.791000,1.380000,1.484000
0.496000,-1.759000,1.357000,1.529000
0.516000,-1.712000,1.334000,1.564000
0.536000,-1.653000,1.309000,1.590000
0.556000,-1.590000,1.278000,1.608000
0.576000,-1.532000,1.239000,1.619000
0.596000,-1.480000,1.201000,1.622000
0.616000,-1.440000,1.162000,1.615000
0.636000,-1.411000,1.116000,1.598000
0.656000,-1.396000,1.057000,1.568000
0.676000,-1.393000,0.991000,1.522000
0.696000,-1.392000,0.924000,1.464000
0.716000,-1.390000,0.857000,1.398000
0.736000,-1.389000,0.786000,1.327000
0.756000,-1.382000,0.712000,1.255000
0.776000,-1.358000,0.638000,1.184000
0.796000,-1.315000,0.567000,1.117000
0.816000,-1.260000,0.498000,1.053000
0.836000,-1.200000,0.430000,0.993000
0.856000,-1.138000,0.363000,0.937000
0.876000,-1.082000,0.299000,0.885000
0.896000,-1.035000,0.240000,0.836000
0.916000,-0.998000,0.181000,0.790000
0.936000,-0.970000,0.126000,0.744000
0.956000,-0.948000,0.076000,0.701000
0.976000,-0.927000,0.029000,0.659000
0.996000,-0.902000,-0.017000,0.620000
1.016000,-0.874000,-0.061000,0.583000
1.036000,-0.846000,-0.101000,0.550000
1.056000,-0.820000,-0.137000,0.518000
1.076000,-0.793000,-0.174000,0.489000
1.096000,-0.768000,-0.215000,0.462000
1.116000,-0.746000,-0.258000,0.434000
1.136000,-0.729000,-0.301000,0.404000
1.156000,-0.712000,-0.345000,0.372000
1.176000,-0.692000,-0.392000,0.339000
1.196000,-0.667000,-0.440000,0.303000
1.216000,-0.638000,-0.489000,0.265000
1.236000,-0.604000,-0.537000,0.224000
1.256000,-0.565000,-0.580000,0.182000
1.276000,-0.524000,-0.618000,0.141000
1.296000,-0.482000,-0.652000,0.102000
1.316000,-0.447000,-0.680000,0.065000
1.336000,-0.423000,-0.702000,0.032000
1.356000,-0.410000,-0.721000,0.001000
1.376000,-0.405000,-0.742000,-0.032000
1.396000,-0.405000,-0.759000,-0.067000
1.416000,-0.419000,-0.759000,-0.103000
1.436000,-0.461000,-0.745000,-0.138000
1.456000,-0.513000,-0.732000,-0.174000
1.476000,-0.540000,-0.697000,-0.211000
1.496000,-0.526000,-0.638000,-0.264000
1.516000,-0.491000,-0.560000,-0.323000
1.536000,-0.456000,-0.414000,-0.352000
1.556000,-0.343000,-0.264000,-0.277000
1.576000,-0.186000,-0.406000,-0.115000
1.596000,-0.205000,-0.587000,-0.056000
1.616000,-0.360000,-0.775000,-0.226000
1.636000,-0.401000,-0.968000,-0.414000
1.656000,-0.224000,-1.080000,-0.534000
1.676000,-0.035000,-1.082000,-0.495000
1.696000,-0.086000,-1.120000,-0.350000
1.716000,-0.283000,-1.210000,-0.250000
1.736000,-0.502000,-1.241000,-0.137000
1.756000,-0.584000,-1.159000,-0.081000
1.776000,-0.554000,-1.035000,-0.066000
1.796000,-0.489000,-0.890000,-0.068000
1.816000,-0.395000,-0.733000,-0.083000
1.836000,-0.268000,-0.587000,-0.095000
1.856000,-0.124000,-0.458000,-0.109000
1.876000,-0.038000,-0.333000,-0.126000
1.896000,-0.045000,-0.204000,-0.156000
1.916000,-0.108000,-0.062000,-0.197000
1.936000,-0.145000,0.097000,-0.235000
1.956000,-0.022000,0.257000,-0.253000
1.976000,0.209000,0.398000,-0.216000
1.996000,0.450000,0.466000,-0.166000
2.016000,0.465000,0.429000,-0.145000
2.036000,0.202000,0.354000,-0.165000
2.056000,-0.096000,0.274000,-0.176000
2.076000,-0.339000,0.219000,-0.173000
2.096000,-0.350000,0.190000,-0.161000
2.116000,-0.215000,0.181000,-0.141000
2.136000,-0.087000,0.182000,-0.126000
2.156000,-0.056000,0.190000,-0.120000
2.176000,-0.131000,0.197000,-0.123000
2.196000,-0.253000,0.198000,-0.126000
2.216000,-0.353000,0.191000,-0.125000
2.236000,-0.415000,0.174000,-0.124000
2.256000,-0.431000,0.156000,-0.124000
2.276000,-0.393000,0.148000,-0.124000
2.296000,-0.321000,0.146000,-0.124000
2.316000,-0.251000,0.142000,-0.122000
2.336000,-0.201000,0.139000,-0.122000
2.356000,-0.172000,0.136000,-0.122000
2.376000,-0.156000,0.131000,-0.121000
2.396000,-0.145000,0.126000,-0.118000
2.416000,-0.133000,0.122000,-0.116000
2.436000,-0.125000,0.120000,-0.114000
2.456000,-0.121000,0.117000,-0.114000
2.476000,-0.121000,0.114000,-0.114000
2.496000,-0.125000,0.112000,-0.113000
2.516000,-0.131000,0.110000,-0.112000
2.536000,-0.136000,0.107000,-0.110000
2.556000,-0.140000,0.105000,-0.108000
2.576000,-0.143000,0.103000,-0.106000
2.596000,-0.143000,0.102000,-0.104000
2.616000,-0.143000,0.100000,-0.101000
2.636000,-0.147000,0.099000,-0.098000
2.656000,-0.154000,0.098000,-0.096000
2.676000,-0.159000,0.097000,-0.093000
2.696000,-0.160000,0.097000,-0.089000
2.716000,-0.157000,0.097000,-0.085000
2.736000,-0.152000,0.098000,-0.082000
2.756000,-0.151000,0.099000,-0.079000
2.776000,-0.153000,0.098000,-0.078000
2.796000,-0.151000,0.097000,-0.075000
2.816000,-0.145000,0.095000,-0.074000
2.836000,-0.135000,0.094000,-0.072000
2.856000,-0.129000,0.094000,-0.071000
2.876000,-0.128000,0.094000,-0.070000
2.896000,-0.131000,0.093000,-0.068000
2.916000,-0.138000,0.092000,-0.066000
2.936000,-0.147000,0.089000,-0.066000
2.956000,-0.148000,0.087000,-0.066000
2.976000,-0.143000,0.086000,-0.064000
2.996000,-0.137000,0.085000,-0.063000
3.016000,-0.133000,0.084000,-0.063000
3.036000,-0.132000,0.083000,-0.062000
3.056000,-0.133000,0.082000,-0.061000
3.076000,-0.133000,0.081000,-0.061000
3.096000,-0.129000,0.080000,-0.060000
3.116000,-0.125000,0.080000,-0.059000
3.136000,-0.121000,0.079000,-0.059000
3.156000,-0.118000,0.078000,-0.058000
3.176000,-0.116000,0.077000,-0.057000
3.196000,-0.117000,0.076000,-0.057000
3.216000,-0.117000,0.075000,-0.056000
3.236000,-0.118000,0.074000,-0.056000
3.256000,-0.119000,0.073000,-0.056000
3.276000,-0.119000,0.072000,-0.055000
3.296000,-0.118000,0.072000,-0.054000
3.316000,-0.117000,0.071000,-0.054000
3.336000,-0.115000,0.070000,-0.053000
3.356000,-0.113000,0.070000,-0.053000
3.376000,-0.111000,0.069000,-0.053000
3.396000,-0.111000,0.068000,-0.052000
3.416000,-0.112000,0.067000,-0.052000
3.436000,-0.112000,0.067000,-0.052000
3.456000,-0.112000,0.066000,-0.051000
3.476000,-0.111000,0.065000,-0.051000
3.496000,-0.111000,0.065000,-0.051000
3.516000,-0.110000,0.064000,-0.050000
3.536000,-0.109000,0.064000,-0.050000
3.556000,-0.107000,0.063000,-0.050000
3.576000,-0.106000,0.063000,-0.049000
3.596000,-0.105000,0.062000,-0.049000
3.616000,-0.105000,0.062000,-0.049000
3.636000,-0.104000,0.061000,-0.048000
3.656000,-0.104000,0.061000,-0.048000
3.676000,-0.103000,0.060000,-0.048000
3.696000,-0.102000,0.060000,-0.047000
3.716000,-0.101000,0.059000,-0.047000
3.736000,-0.101000,0.059000,-0.047000
3.756000,-0.100000,0.058000,-0.047000
3.776000,-0.100000,0.058000,-0.046000
3.796000,-0.099000,0.057000,-0.046000
3.816000,-0.098000,0.057000,-0.046000
3.836000,-0.096000,0.057000,-0.045000
3.856000,-0.096000,0.056000,-0.045000
3.876000,-0.096000,0.056000,-0.045000
3.896000,-0.095000,0.056000,-0.044000
3.916000,-0.095000,0.055000,-0.044000
3.936000,-0.094000,0.055000,-0.044000
3.956000,-0.094000,0.055000,-0.044000
3.976000,-0.093000,0.054000,-0.043000
3.996000,-0.092000,0.054000,-0.043000
4.016000,-0.091000,0.054000,-0.042000
4.036000,-0.090000,0.054000,-0.042000
4.056000,-0.089000,0.054000,-0.042000
4.076000,-0.089000,0.053000,-0.042000
4.096000,-0.088000,0.053000,-0.041000
4.116000,-0.088000,0.053000,-0.041000
4.136000,-0.087000,0.053000,-0.041000
4.156000,-0.087000,0.052000,-0.040000
4.176000,-0.086000,0.052000,-0.040000
4.196000,-0.086000,0.052000,-0.040000
4.216000,-0.085000,0.052000,-0.039000
4.236000,-0.085000,0.051000,-0.039000
4.256000,-0.084000,0.051000,-0.039000
4.276000,-0.083000,0.051000,-0.039000
4.296000,-0.083000,0.051000,-0.038000
4.316000,-0.082000,0.051000,-0.038000
4.336000,-0.082000,0.050000,-0.038000
4.356000,-0.082000,0.050000,-0.038000
4.376000,-0.081000,0.050000,-0.037000
4.396000,-0.081000,0.049000,-0.037000
4.416000,-0.081000,0.049000,-0.037000
4.436000,-0.080000,0.049000,-0.037000
4.456000,-0.080000,0.049000,-0.036000
4.476000,-0.080000,0.048000,-0.036000
4.496000,-0.079000,0.048000,-0.036000
4.516000,-0.079000,0.048000,-0.036000
4.536000,-0.079000,0.047000,-0.036000
4.556000,-0.079000,0.047000,-0.035000
4.576000,-0.078000,0.047000,-0.035000
4.596000,-0.078000,0.047000,-0.035000
4.616000,-0.078000,0.046000,-0.035000
4.636000,-0.078000,0.046000,-0.035000
4.656000,-0.078000,0.046000,-0.034000
4.676000,-0.078000,0.046000,-0.034000
4.696000,-0.077000,0.045000,-0.034000
4.716000,-0.077000,0.045000,-0.034000
4.736000,-0.076000,0.045000,-0.034000
4.756000,-0.076000,0.045000,-0.033000
4.776000,-0.077000,0.044000,-0.033000
4.796000,-0.077000,0.044000,-0.033000
4.816000,-0.077000,0.044000,-0.033000
4.836000,-0.077000,0.043000,-0.033000
4.856000,-0.077000,0.043000,-0.033000
4.876000,-0.076000,0.043000,-0.033000
4.896000,-0.076000,0.043000,-0.033000
4.916000,-0.076000,0.042000,-0.032000
4.936000,-0.076000,0.042000,-0.032000
4.956000,-0.076000,0.042000,-0.032000
4.976000,-0.075000,0.042000,-0.032000
4.996000,-0.075000,0.042000,-0.032000
5.016000,-0.075000,0.041000,-0.032000
5.036000,-0.075000,0.041000,-0.031000
5.056000,-0.075000,0.041000,-0.031000
5.076000,-0.074000,0.041000,-0.031000
5.096000,-0.074000,0.041000,-0.031000
5.116000,-0.074000,0.040000,-0.031000
5.136000,-0.074000,0.040000,-0.031000
5.156000,-0.074000,0.040000,-0.031000
5.176000,-0.074000,0.040000,-0.030000
5.196000,-0.073000,0.040000,-0.030000
5.216000,-0.073000,0.040000,-0.030000
5.236000,-0.072000,0.039000,-0.030000
5.256000,-0.072000,0.039000,-0.030000
5.276000,-0.072000,0.039000,-0.030000
5.296000,-0.072000,0.039000,-0.030000
5.316000,-0.072000,0.039000,-0.029000
5.336000,-0.072000,0.038000,-0.029000
5.356000,-0.072000,0.038000,-0.029000
5.376000,-0.071000,0.038000,-0.029000
5.396000,-0.071000,0.038000,-0.029000
5.416000,-0.070000,0.038000,-0.029000
5.436000,-0.070000,0.038000,-0.028000
5.456000,-0.070000,0.038000,-0.028000
5.476000,-0.069000,0.038000,-0.028000
5.496000,-0.069000,0.038000,-0.028000
5.516000,-0.068000,0.038000,-0.028000
5.536000,-0.068000,0.037000,-0.028000
5.556000,-0.068000,0.037000,-0.027000
5.576000,-0.068000,0.037000,-0.027000
5.596000,-0.068000,0.037000,-0.027000
5.616000,-0.068000,0.037000,-0.027000
5.636000,-0.067000,0.037000,-0.027000
5.656000,-0.066000,0.037000,-0.026000
5.676000,-0.066000,0.037000,-0.026000
5.696000,-0.065000,0.037000,-0.026000
5.716000,-0.065000,0.037000,-0.026000
5.736000,-0.065000,0.036000,-0.026000
5.756000,-0.065000,0.036000,-0.026000
5.776000,-0.065000,0.036000,-0.026000
5.796000,-0.065000,0.036000,-0.026000
5.816000,-0.064000,0.036000,-0.025000
5.836000,-0.064000,0.036000,-0.025000
5.856000,-0.064000,0.036000,-0.025000
5.876000,-0.063000,0.036000,-0.025000
5.896000,-0.063000,0.036000,-0.025000
5.916000,-0.063000,0.036000,-0.025000
5.936000,-0.063000,0.036000,-0.025000
5.956000,-0.062000,0.036000,-0.025000
5.976000,-0.062000,0.036000,-0.025000
5.996000,-0.061000,0.035000,-0.025000
6.016000,-0.061000,0.035000,-0.025000
6.036000,-0.062000,0.035000,-0.025000
6.056000,-0.062000,0.035000,-0.025000
6.076000,-0.062000,0.035000,-0.025000
6.096000,-0.062000,0.035000,-0.025000
6.116000,-0.060000,0.034000,-0.025000
6.136000,-0.058000,0.034000,-0.025000
6.156000,-0.056000,0.034000,-0.026000
6.176000,-0.055000,0.034000,-0.025000
6.196000,-0.056000,0.034000,-0.025000
6.216000,-0.056000,0.034000,-0.025000
6.236000,-0.057000,0.034000,-0.025000
6.256000,-0.057000,0.034000,-0.025000
6.276000,-0.058000,0.034000,-0.025000
6.296000,-0.059000,0.034000,-0.025000
6.316000,-0.059000,0.033000,-0.025000
6.336000,-0.060000,0.033000,-0.024000
6.356000,-0.061000,0.033000,-0.024000
6.376000,-0.061000,0.033000,-0.024000
6.396000,-0.062000,0.032000,-0.023000
6.416000,-0.061000,0.032000,-0.022000
6.436000,-0.061000,0.032000,-0.021000
6.456000,-0.060000,0.033000,-0.019000
6.476000,-0.060000,0.033000,-0.018000
6.496000,-0.060000,0.033000,-0.016000
6.516000,-0.061000,0.032000,-0.014000
6.536000,-0.061000,0.032000,-0.012000
6.556000,-0.061000,0.032000,-0.010000
6.576000,-0.062000,0.033000,-0.008000
6.596000,-0.063000,0.033000,-0.007000
6.616000,-0.064000,0.034000,-0.007000
6.636000,-0.063000,0.034000,-0.008000
6.656000,-0.062000,0.035000,-0.010000
6.676000,-0.060000,0.035000,-0.013000
6.696000,-0.059000,0.035000,-0.017000
6.716000,-0.057000,0.036000,-0.020000
6.736000,-0.054000,0.037000,-0.023000
6.756000,-0.050000,0.038000,-0.026000
6.776000,-0.047000,0.039000,-0.029000
6.796000,-0.044000,0.041000,-0.031000
6.816000,-0.043000,0.041000,-0.033000
6.836000,-0.045000,0.040000,-0.036000
6.856000,-0.044000,0.037000,-0.039000
6.876000,-0.040000,0.035000,-0.042000
6.896000,-0.033000,0.033000,-0.046000
6.916000,-0.031000,0.030000,-0.053000
6.936000,-0.032000,0.028000,-0.061000
6.956000,-0.036000,0.025000,-0.070000
6.976000,-0.038000,0.022000,-0.079000
6.996000,-0.031000,0.021000,-0.086000
7.016000,-0.013000,0.022000,-0.089000
7.036000,0.010000,0.024000,-0.092000
7.056000,0.032000,0.024000,-0.095000
7.076000,0.052000,0.024000,-0.098000
7.096000,0.065000,0.025000,-0.103000
7.116000,0.071000,0.026000,-0.110000
7.136000,0.075000,0.028000,-0.117000
7.156000,0.081000,0.031000,-0.122000
7.176000,0.082000,0.035000,-0.128000
7.196000,0.077000,0.039000,-0.133000
7.216000,0.070000,0.044000,-0.138000
7.236000,0.064000,0.049000,-0.143000
7.256000,0.059000,0.055000,-0.146000
7.276000,0.054000,0.059000,-0.148000
7.296000,0.047000,0.062000,-0.150000
7.316000,0.040000,0.064000,-0.151000
7.336000,0.030000,0.065000,-0.151000
7.356000,0.021000,0.066000,-0.151000
7.376000,0.014000,0.068000,-0.151000
7.396000,0.009000,0.071000,-0.151000
7.416000,0.004000,0.075000,-0.150000
7.436000,-0.001000,0.079000,-0.148000
7.456000,-0.005000,0.082000,-0.147000
7.476000,-0.006000,0.085000,-0.145000
7.496000,-0.008000,0.088000,-0.144000
7.516000,-0.010000,0.091000,-0.143000
7.536000,-0.012000,0.093000,-0.142000
7.556000,-0.014000,0.095000,-0.140000
7.576000,-0.016000,0.098000,-0.139000
7.596000,-0.018000,0.100000,-0.139000
7.616000,-0.018000,0.102000,-0.139000
7.636000,-0.019000,0.103000,-0.138000
7.656000,-0.018000,0.104000,-0.138000
7.676000,-0.019000,0.105000,-0.137000
7.696000,-0.020000,0.106000,-0.137000
7.716000,-0.021000,0.107000,-0.137000
7.736000,-0.021000,0.109000,-0.136000
7.756000,-0.020000,0.110000,-0.135000
7.776000,-0.019000,0.111000,-0.134000
7.796000,-0.018000,0.112000,-0.132000
7.816000,-0.017000,0.113000,-0.130000
7.836000,-0.014000,0.114000,-0.128000
7.856000,-0.011000,0.115000,-0.126000
7.876000,-0.009000,0.115000,-0.123000
7.896000,-0.008000,0.116000,-0.120000
7.916000,-0.007000,0.117000,-0.116000
7.936000,-0.006000,0.118000,-0.113000
7.956000,-0.005000,0.119000,-0.109000
7.976000,-0.005000,0.121000,-0.105000
7.996000,-0.004000,0.121000,-0.101000
