accel_time_list,accel_x_list,accel_y_list,accel_z_list
0.420000,-5.051765,-4.113238,0.950498
0.440000,-5.345055,-4.320337,0.730232
0.460000,-5.709234,-4.306332,0.594153
0.480000,-6.181759,-4.190741,0.508605
0.500000,-6.741655,-4.086542,0.443779
0.520000,-7.344012,-4.034653,0.390912
0.540000,-7.947789,-4.029408,0.352122
0.560000,-8.554311,-4.057813,0.324257
0.580000,-9.165362,-4.108661,0.313102
0.600000,-9.762453,-4.176836,0.320666
0.620000,-10.323307,-4.263857,0.345333
0.640000,-10.845959,-4.367901,0.381053
0.660000,-11.307190,-4.458309,0.415263
0.680000,-11.708801,-4.512625,0.447771
0.700000,-12.084142,-4.532420,0.484470
0.720000,-12.461109,-4.530210,0.525863
0.740000,-12.846821,-4.528419,0.553061
0.760000,-13.198808,-4.548633,0.564882
0.780000,-13.350696,-4.581835,0.552256
0.800000,-13.269602,-4.617902,0.510576
0.820000,-13.042203,-4.654197,0.447303
0.840000,-12.718873,-4.687720,0.374034
0.860000,-12.340127,-4.716495,0.289200
0.880000,-11.965098,-4.742994,0.200356
0.900000,-11.626690,-4.769020,0.114134
0.920000,-11.281654,-4.794635,0.031510
0.940000,-10.919539,-4.828203,-0.036224
0.960000,-10.588032,-4.867144,-0.084945
0.980000,-10.292794,-4.897875,-0.102891
1.000000,-10.008301,-4.904377,-0.087734
1.020000,-9.740033,-4.886152,-0.048458
1.040000,-9.485598,-4.850114,-0.009442
1.060000,-9.235098,-4.806075,0.027317
1.080000,-9.008862,-4.770080,0.085451
1.100000,-8.836091,-4.741623,0.170967
1.120000,-8.701660,-4.709581,0.257893
1.140000,-8.578048,-4.685452,0.335129
1.160000,-8.469541,-4.681629,0.406653
1.180000,-8.398354,-4.691066,0.489243
1.200000,-8.376571,-4.706212,0.582097
1.220000,-8.389878,-4.744970,0.679142
1.240000,-8.413226,-4.811947,0.782197
1.260000,-8.437597,-4.893940,0.892096
1.280000,-8.463503,-4.984658,1.009876
1.300000,-8.496346,-5.083971,1.148653
1.320000,-8.533439,-5.169466,1.292584
1.340000,-8.567430,-5.221159,1.422020
1.360000,-8.598337,-5.250169,1.540995
1.380000,-8.646830,-5.282186,1.645779
1.400000,-8.729194,-5.324063,1.739250
1.420000,-8.836048,-5.363775,1.824485
1.440000,-8.924987,-5.388005,1.892305
1.460000,-8.966584,-5.393185,1.943686
1.480000,-8.974885,-5.385307,1.976236
1.500000,-8.969017,-5.370312,1.993854
1.520000,-8.953777,-5.344144,2.002729
1.540000,-8.933104,-5.306311,2.008360
1.560000,-8.910552,-5.258162,2.006368
1.580000,-8.886601,-5.204969,1.992675
1.600000,-8.861475,-5.150925,1.970669
1.620000,-8.837232,-5.100049,1.947452
1.640000,-8.814687,-5.049070,1.927196
1.660000,-8.787582,-4.999134,1.909535
1.680000,-8.751015,-4.950578,1.891615
1.700000,-8.705369,-4.899794,1.871231
1.720000,-8.651465,-4.846497,1.849898
1.740000,-8.590817,-4.791880,1.828610
1.760000,-8.527564,-4.738683,1.806010
1.780000,-8.468466,-4.689601,1.783536
1.800000,-8.417296,-4.647141,1.763055
1.820000,-8.375841,-4.610039,1.744867
1.840000,-8.344489,-4.577291,1.730522
1.860000,-8.323676,-4.547554,1.718313
1.880000,-8.311700,-4.521014,1.708612
1.900000,-8.308946,-4.495811,1.702441
1.920000,-8.314116,-4.472164,1.700018
1.940000,-8.326625,-4.452638,1.702840
1.960000,-8.345556,-4.436651,1.707132
1.980000,-8.379311,-4.416400,1.706354
2.000000,-8.454242,-4.395953,1.703416
2.020000,-8.564679,-4.381664,1.701195
2.040000,-8.687502,-4.373840,1.700527
2.060000,-8.799013,-4.367688,1.699794
2.080000,-8.890964,-4.356005,1.695194
2.100000,-8.950587,-4.332499,1.688528
2.120000,-8.972676,-4.301012,1.681862
2.140000,-8.973365,-4.278505,1.675110
2.160000,-8.969931,-4.272972,1.666898
2.180000,-8.968279,-4.281468,1.655548
2.200000,-8.965460,-4.297131,1.643000
2.220000,-8.957622,-4.315125,1.630215
2.240000,-8.941647,-4.331244,1.617519
2.260000,-8.916544,-4.346868,1.607290
2.280000,-8.875547,-4.361051,1.599769
2.300000,-8.820611,-4.369684,1.597237
2.320000,-8.763262,-4.369722,1.603588
2.340000,-8.706670,-4.366906,1.612374
2.360000,-8.643841,-4.368808,1.620036
2.380000,-8.580320,-4.378696,1.634429
2.400000,-8.531849,-4.390522,1.662850
2.476000,-8.505608,-4.422430,1.695842
2.496000,-8.488126,-4.457451,1.737151
2.516000,-8.483957,-4.493621,1.783140
2.536000,-8.497080,-4.526663,1.824818
2.556000,-8.528576,-4.549076,1.859142
2.576000,-8.577142,-4.556288,1.884707
2.596000,-8.657583,-4.555245,1.906136
2.616000,-8.783736,-4.554276,1.929895
2.636000,-8.933978,-4.547288,1.956173
2.656000,-9.056062,-4.527503,1.980519
2.676000,-9.135917,-4.499689,1.999767
2.696000,-9.191681,-4.467879,2.014463
2.716000,-9.226991,-4.432018,2.024146
2.736000,-9.241034,-4.389846,2.029026
2.756000,-9.243471,-4.343869,2.027498
2.776000,-9.238404,-4.297342,2.020506
2.796000,-9.223399,-4.251256,2.011527
2.816000,-9.196999,-4.207232,2.004117
2.836000,-9.157825,-4.166504,2.001190
2.856000,-9.107816,-4.129785,2.002264
2.876000,-9.048783,-4.095408,2.004889
2.896000,-8.981154,-4.062528,2.005084
2.916000,-8.904990,-4.029221,2.001306
2.936000,-8.824104,-3.994891,1.993128
2.956000,-8.742528,-3.962424,1.982784
2.976000,-8.665552,-3.932819,1.971318
2.996000,-8.595925,-3.906171,1.960071
3.016000,-8.534269,-3.881961,1.949898
3.036000,-8.482568,-3.860210,1.941105
3.056000,-8.445440,-3.841054,1.936137
3.076000,-8.428652,-3.823527,1.932636
3.096000,-8.431104,-3.809131,1.928200
3.116000,-8.448307,-3.800554,1.925286
3.136000,-8.477422,-3.797604,1.927186
3.156000,-8.514637,-3.800166,1.933389
3.176000,-8.555487,-3.804940,1.941912
3.196000,-8.610538,-3.806803,1.945408
3.216000,-8.718296,-3.808377,1.944006
3.236000,-8.879017,-3.814295,1.947283
3.256000,-9.055619,-3.823602,1.960724
3.276000,-9.210111,-3.837309,1.984832
3.296000,-9.311234,-3.848694,2.014531
3.316000,-9.347389,-3.853863,2.043604
3.336000,-9.329561,-3.854273,2.066541
3.356000,-9.284499,-3.853852,2.082881
3.376000,-9.222648,-3.854775,2.094101
3.396000,-9.147748,-3.858820,2.100604
3.416000,-9.074986,-3.865666,2.101261
3.436000,-9.019478,-3.872555,2.097759
3.456000,-8.984688,-3.881164,2.094334
3.476000,-8.963405,-3.894349,2.092456
3.496000,-8.944316,-3.913865,2.092777
3.516000,-8.914508,-3.938841,2.095597
3.536000,-8.871235,-3.965406,2.103375
3.556000,-8.825562,-3.982566,2.117121
3.576000,-8.777460,-3.987485,2.121739
3.596000,-8.711029,-3.990458,2.116975
3.616000,-8.636860,-4.006092,2.113168
3.636000,-8.583167,-4.037933,2.115950
3.656000,-8.561362,-4.077300,2.121641
3.676000,-8.561488,-4.113240,2.130232
3.696000,-8.579309,-4.136476,2.146171
3.716000,-8.614342,-4.147126,2.164275
3.736000,-8.654078,-4.149405,2.179693
3.756000,-8.688674,-4.146977,2.192224
3.776000,-8.720025,-4.146243,2.204033
3.796000,-8.752965,-4.148120,2.214927
3.816000,-8.783413,-4.150177,2.222935
3.836000,-8.811383,-4.149939,2.231883
3.856000,-8.856300,-4.142815,2.237459
3.876000,-8.933409,-4.131382,2.240638
3.896000,-9.024066,-4.117458,2.245605
3.916000,-9.084048,-4.102901,2.257226
3.936000,-9.090717,-4.091386,2.271806
3.956000,-9.059535,-4.082517,2.284045
3.976000,-9.007685,-4.070297,2.290298
3.996000,-8.943093,-4.048923,2.290441
4.016000,-8.873486,-4.017493,2.284824
4.036000,-8.807923,-3.981558,2.276739
4.056000,-8.750618,-3.946875,2.267180
4.076000,-8.700781,-3.916007,2.258157
4.096000,-8.661883,-3.888189,2.253534
4.116000,-8.637609,-3.864452,2.255461
4.136000,-8.623423,-3.845511,2.261515
4.156000,-8.605717,-3.829909,2.266382
4.176000,-8.575166,-3.813165,2.265836
4.196000,-8.533632,-3.794918,2.259720
4.216000,-8.483404,-3.777319,2.247567
4.236000,-8.432891,-3.762087,2.230976
4.256000,-8.394245,-3.752213,2.214802
4.276000,-8.372103,-3.748437,2.202495
4.296000,-8.366655,-3.749778,2.194271
4.316000,-8.375584,-3.754896,2.189285
4.336000,-8.397833,-3.762086,2.186815
4.356000,-8.432415,-3.770763,2.186831
4.376000,-8.476396,-3.781337,2.187733
4.396000,-8.534848,-3.793716,2.191376
4.416000,-8.605391,-3.808223,2.201023
4.436000,-8.660034,-3.818092,2.214740
4.456000,-8.690225,-3.817268,2.226426
4.492000,-8.776304,-3.800622,2.233600
4.512000,-8.881501,-3.779445,2.245543
4.532000,-8.971384,-3.761651,2.267994
4.552000,-9.029906,-3.752589,2.296975
4.572000,-9.053554,-3.749646,2.324749
4.592000,-9.045460,-3.749400,2.347399
4.612000,-9.009461,-3.753638,2.363963
4.632000,-8.948986,-3.765980,2.373528
4.652000,-8.874090,-3.786116,2.377618
4.672000,-8.796078,-3.808419,2.377927
4.692000,-8.722211,-3.827042,2.375305
4.712000,-8.661533,-3.841986,2.373063
4.732000,-8.624822,-3.855154,2.373639
4.752000,-8.614697,-3.866641,2.377301
4.772000,-8.618787,-3.877711,2.382637
4.792000,-8.619065,-3.889560,2.387644
4.812000,-8.606394,-3.903872,2.390756
4.832000,-8.585697,-3.921353,2.391815
4.852000,-8.565742,-3.940535,2.391525
4.872000,-8.553478,-3.960001,2.389469
4.892000,-8.553499,-3.977505,2.387314
4.912000,-8.566691,-3.991374,2.386664
4.932000,-8.590632,-4.001093,2.386859
4.952000,-8.621552,-4.006466,2.387364
4.972000,-8.655283,-4.005743,2.387648
4.992000,-8.691474,-3.999384,2.388407
5.012000,-8.729358,-3.988202,2.390069
5.032000,-8.765066,-3.973036,2.392242
5.052000,-8.795589,-3.954758,2.394153
5.072000,-8.822537,-3.934620,2.395063
5.092000,-8.848849,-3.913799,2.395030
5.112000,-8.875435,-3.890339,2.391574
5.132000,-8.913852,-3.864601,2.386309
5.152000,-8.963576,-3.837816,2.381336
5.172000,-9.008669,-3.810872,2.379526
5.192000,-9.034286,-3.787396,2.383431
5.212000,-9.031435,-3.769094,2.390770
5.232000,-9.003981,-3.754051,2.397532
5.252000,-8.957421,-3.738071,2.401640
5.272000,-8.896977,-3.718927,2.402117
5.292000,-8.827061,-3.696103,2.398662
5.312000,-8.755508,-3.670572,2.391483
5.332000,-8.689468,-3.644320,2.383633
5.352000,-8.630863,-3.619653,2.376700
5.372000,-8.581771,-3.597477,2.372781
5.392000,-8.546379,-3.578097,2.373976
5.412000,-8.528216,-3.560803,2.379446
5.432000,-8.524423,-3.545345,2.387087
5.452000,-8.525674,-3.533387,2.393288
5.472000,-8.528076,-3.524289,2.397104
5.492000,-8.531424,-3.515909,2.396787
5.512000,-8.536592,-3.506371,2.391207
5.532000,-8.545766,-3.494192,2.380439
5.552000,-8.561241,-3.483369,2.366882
5.572000,-8.582362,-3.478208,2.353891
5.592000,-8.606883,-3.480003,2.343544
5.612000,-8.636251,-3.488338,2.337323
5.632000,-8.671362,-3.503031,2.332649
5.652000,-8.705949,-3.523373,2.327015
5.672000,-8.733968,-3.547776,2.318948
5.692000,-8.751471,-3.575402,2.309142
5.712000,-8.759002,-3.604018,2.301206
5.732000,-8.759457,-3.628758,2.300149
5.752000,-8.772445,-3.650668,2.300587
5.772000,-8.823645,-3.677712,2.300900
5.792000,-8.899647,-3.724238,2.304347
5.812000,-8.969421,-3.822743,2.320664
5.832000,-9.012236,-3.972214,2.357552
5.852000,-9.028791,-4.102488,2.407886
5.872000,-9.028473,-4.169391,2.457165
5.892000,-9.024030,-4.226389,2.499847
5.912000,-9.025930,-4.292142,2.531663
5.932000,-9.033557,-4.340205,2.558278
5.952000,-9.040277,-4.389621,2.583900
5.972000,-9.048157,-4.473207,2.605536
5.992000,-9.051546,-4.534072,2.628217
6.012000,-9.047812,-4.540626,2.654716
6.032000,-9.042325,-4.523773,2.682378
6.052000,-9.035234,-4.514429,2.703133
6.072000,-9.012567,-4.486480,2.717844
6.092000,-8.968932,-4.417823,2.729285
6.112000,-8.913406,-4.331774,2.748890
6.132000,-8.862752,-4.271228,2.778518
6.152000,-8.804789,-4.218640,2.802115
6.172000,-8.722400,-4.150168,2.824535
6.192000,-8.629767,-4.087889,2.861782
6.212000,-8.546329,-4.048650,2.911394
6.232000,-8.457483,-4.002817,2.961318
6.252000,-8.347924,-3.937581,3.015808
6.272000,-8.231199,-3.820860,3.076138
6.292000,-8.091784,-3.772431,3.144878
6.312000,-7.945929,-3.737409,3.212790
6.332000,-7.788314,-3.680012,3.285525
6.352000,-7.628233,-3.640548,3.364333
6.372000,-7.475833,-3.617536,3.455808
6.392000,-7.327662,-3.585780,3.563570
6.412000,-7.183744,-3.542896,3.679896
6.432000,-6.988179,-3.504369,3.799355
6.452000,-6.800969,-3.472544,3.925236
6.472000,-6.636998,-3.458603,4.060167
