accel_time_list,accel_x_list,accel_y_list,accel_z_list
0.599,-0.684742,-0.94571,12.82574
0.619,-0.737414,-0.987608,13.15374
0.639,-0.679913,-1.134136,13.29804
0.659,-0.58338,-1.347004,13.35211
0.679,-0.444038,-1.55856,13.39847
0.699,-0.283071,-1.829013,13.51139
0.719,-0.124714,-2.133762,13.58227
0.739,0.119813,-2.338524,13.51693
0.759,0.424178,-2.451314,13.40376
0.779,0.708033,-2.549834,13.32233
0.799,0.99415,-2.675311,13.23962
0.819,1.299294,-2.76735,13.12208
0.839,1.605052,-2.795917,12.99162
0.859,1.903755,-2.803852,12.86486
0.879,2.200083,-2.796665,12.7181
0.899,2.493663,-2.754541,12.54269
0.919,2.773543,-2.694736,12.37817
0.939,2.999139,-2.696804,12.23722
0.959,3.180936,-2.745039,12.08786
0.979,3.36053,-2.774328,11.93952
0.999,3.523577,-2.752491,11.78816
1.019,3.663502,-2.687531,11.61142
1.039,3.809316,-2.619232,11.37895
1.059,3.969465,-2.528296,11.09712
1.079,4.11531,-2.407163,10.80741
1.099,4.247694,-2.269186,10.54382
1.119,4.36292,-2.139545,10.30674
1.139,4.450179,-2.053233,10.06595
1.159,4.530435,-1.996024,9.817409
1.179,4.63165,-1.920063,9.583724
1.199,4.735136,-1.808229,9.371522
1.219,4.823149,-1.680426,9.167955
1.239,4.915339,-1.563367,8.981405
1.259,5.005087,-1.468858,8.803859
1.279,5.085724,-1.386831,8.631318
1.299,5.172243,-1.298795,8.471086
1.319,5.267931,-1.199039,8.328722
1.339,5.356752,-1.09519,8.196113
1.359,5.432694,-1.000826,8.073845
1.379,5.514618,-0.90809,7.956429
1.399,5.595274,-0.81208,7.845896
1.419,5.661787,-0.712035,7.755551
1.439,5.72635,-0.618422,7.676763
1.459,5.794454,-0.532888,7.595462
1.479,5.852111,-0.446967,7.515085
1.499,5.909028,-0.366762,7.442934
1.519,5.971754,-0.291664,7.379673
1.539,6.01709,-0.217771,7.325597
1.559,6.061215,-0.146959,7.275208
1.579,6.120016,-0.078126,7.219649
1.599,6.175112,-0.015308,7.162395
1.619,6.216518,0.044174,7.110164
1.639,6.255432,0.105129,7.060335
1.659,6.290899,0.168148,7.011407
1.679,6.315455,0.224183,6.962893
1.699,6.338194,0.271705,6.907398
1.719,6.361734,0.311383,6.841689
1.739,6.376595,0.344625,6.771463
1.759,6.379492,0.374916,6.703279
1.779,6.370922,0.391687,6.640259
1.799,6.349264,0.395669,6.575509
1.819,6.324205,0.401692,6.500967
1.839,6.290833,0.408762,6.415735
1.859,6.245775,0.412255,6.328166
1.879,6.19612,0.417174,6.242563
1.899,6.140956,0.423903,6.154843
1.919,6.077552,0.421957,6.056077
1.939,6.018661,0.407966,5.944711
1.959,5.980321,0.386418,5.828281
1.979,5.977242,0.361884,5.701369
1.999,6.007502,0.340413,5.596308
2.019,6.057019,0.321829,5.551987
2.039,6.073011,0.311953,5.473669
2.059,5.989666,0.307729,5.290176
2.079,5.890878,0.316676,5.031191
2.099,6.035499,0.370249,4.746696
2.119,6.285151,0.442577,4.530916
2.139,6.289517,0.440197,4.515583
2.159,6.203485,0.356083,4.636392
2.179,6.243302,0.251196,4.73258
2.199,6.277735,0.167958,4.756663
2.219,6.10958,0.108718,4.759711
2.239,5.775626,0.115004,4.771734
2.259,5.390805,0.182417,4.802012
2.279,5.124137,0.273987,4.822504
2.299,4.802677,0.326295,4.81017
2.319,4.220433,0.329928,4.729092
2.339,3.670995,0.401791,5.051482
2.359,2.223302,-0.411254,7.303309
2.379,-0.410086,-2.046448,15.49725
2.399,0.727966,-3.495268,8.93169
2.419,-0.733729,-1.828794,-5.334197
2.439,-0.302765,2.042542,0.239544
2.459,-0.543818,1.423839,4.974441
2.479,-1.193696,-0.922472,4.900989
2.499,0.948281,-1.703076,4.832007
2.519,1.646491,-1.867124,7.039473
2.539,1.476002,-2.191244,8.257793
2.559,1.948827,-2.081205,7.911639
2.579,2.270681,-2.140067,7.912507
2.736,2.32715,-2.007501,8.251589
2.756,2.36009,-1.820698,8.551661
2.776,2.350933,-1.856638,8.791597
2.796,2.362002,-1.980158,8.985658
2.816,2.371695,-2.070638,9.101274
2.836,2.370022,-2.091539,9.208078
2.856,2.383513,-2.078083,9.33298
2.876,2.426482,-2.054399,9.484169
2.896,2.458736,-2.034748,9.601774
2.916,2.494981,-2.013643,9.653244
2.936,2.512779,-1.990541,9.687211
2.956,2.518851,-1.987752,9.728466
2.976,2.513319,-1.985568,9.780825
2.996,2.528785,-1.986726,9.821347
3.016,2.551832,-1.979584,9.826422
3.036,2.602519,-1.935955,9.819892
3.056,2.651238,-1.887654,9.824117
3.076,2.689918,-1.844064,9.841544
3.096,2.710363,-1.822262,9.857531
3.116,2.721291,-1.815603,9.874038
3.136,2.738417,-1.787743,9.89946
3.156,2.753547,-1.759105,9.922048
3.176,2.764705,-1.748572,9.941991
3.196,2.775178,-1.743268,9.957625
3.216,2.783445,-1.729511,9.976782
3.236,2.795764,-1.713948,9.991041
3.256,2.803907,-1.70635,10.00552
3.276,2.807229,-1.708063,10.02223
3.296,2.812662,-1.709199,10.03435
3.316,2.818991,-1.707207,10.04871
3.336,2.821595,-1.708566,10.06643
3.356,2.824878,-1.713329,10.08175
3.376,2.830134,-1.715018,10.09362
3.396,2.835854,-1.713434,10.10341
3.416,2.842825,-1.715921,10.11212
3.436,2.848969,-1.716627,10.11938
3.456,2.854339,-1.710125,10.12982
3.476,2.860133,-1.703793,10.13893
3.496,2.86493,-1.702575,10.14642
3.516,2.870683,-1.703358,10.1516
3.536,2.875275,-1.700654,10.15842
3.556,2.879429,-1.695128,10.16578
3.576,2.883171,-1.688478,10.17315
3.596,2.88857,-1.684369,10.17947
3.616,2.89257,-1.682668,10.18505
3.636,2.896421,-1.68122,10.19056
3.656,2.899437,-1.678074,10.19631
3.676,2.903843,-1.673954,10.20213
3.696,2.907557,-1.671049,10.20769
3.716,2.910792,-1.670656,10.21188
3.736,2.913915,-1.671139,10.21658
3.756,2.91706,-1.667163,10.22171
3.776,2.919891,-1.664607,10.22693
3.796,2.923412,-1.664227,10.23058
3.816,2.925847,-1.66136,10.23613
3.836,2.929763,-1.658424,10.23864
3.856,2.932219,-1.659062,10.24216
3.876,2.934327,-1.657138,10.24641
3.896,2.937289,-1.652804,10.25027
3.916,2.939635,-1.650768,10.25402
3.936,2.942358,-1.6499,10.2572
3.956,2.944561,-1.648075,10.26079
3.976,2.947172,-1.648062,10.26307
3.996,2.948888,-1.647165,10.2667
4.016,2.950978,-1.644202,10.26977
4.036,2.952662,-1.642764,10.27297
4.056,2.954335,-1.641433,10.27634
4.076,2.957283,-1.640743,10.27758
4.096,2.958481,-1.639773,10.28086
4.116,2.960936,-1.636607,10.28302
4.136,2.962348,-1.634489,10.28607
4.156,2.963692,-1.63386,10.28827
4.176,2.965257,-1.632429,10.29072
4.196,2.967505,-1.631531,10.29267
4.216,2.96917,-1.630071,10.29553
4.236,2.970518,-1.628191,10.29776
4.256,2.971864,-1.626956,10.30039
4.276,2.973597,-1.625156,10.30238
4.296,2.975053,-1.624192,10.304
4.316,2.976298,-1.623483,10.30651
4.336,2.977717,-1.621584,10.30885
4.356,2.979075,-1.619812,10.31091
4.376,2.980375,-1.619205,10.31268
4.396,2.981645,-1.61864,10.31459
4.416,2.983081,-1.617619,10.31646
4.436,2.984211,-1.616757,10.31834
4.456,2.985344,-1.615672,10.31998
4.476,2.986911,-1.614796,10.32152
4.496,2.987938,-1.61378,10.32342
4.516,2.988943,-1.612524,10.325
4.536,2.989953,-1.61176,10.32666
4.556,2.991615,-1.610781,10.3279
4.576,2.9925,-1.609721,10.32976
4.596,2.994105,-1.608103,10.33075
4.616,2.994771,-1.606766,10.33265
4.636,2.995647,-1.605825,10.3343
4.656,2.99668,-1.604877,10.3356
4.676,2.997595,-1.604433,10.33685
4.696,2.998952,-1.603542,10.33782
4.716,2.999708,-1.602877,10.33915
5.142,3.001027,-1.601549,10.33989
5.162,3.001543,-1.600306,10.34175
5.182,3.002652,-1.599626,10.3431
5.202,3.003391,-1.59888,10.34418
5.222,3.004218,-1.597903,10.34534
5.242,3.005803,-1.596673,10.34606
5.262,3.006008,-1.595406,10.34773
5.282,3.006953,-1.594057,10.34914
5.302,3.00784,-1.593391,10.3504
5.322,3.008766,-1.591942,10.3515
5.342,3.009564,-1.59101,10.3529
5.362,3.010282,-1.590256,10.35373
5.382,3.011854,-1.590059,10.35432
5.402,3.013004,-1.589601,10.35557
5.422,3.01407,-1.588166,10.35681
5.442,3.015485,-1.587607,10.35782
5.462,3.016239,-1.587102,10.35906
5.482,3.017513,-1.585357,10.36038
5.502,3.018797,-1.584994,10.36069
5.522,3.019375,-1.58473,10.36211
5.542,3.020425,-1.583008,10.3636
5.562,3.021537,-1.581927,10.36466
5.582,3.022973,-1.581717,10.36559
5.602,3.024012,-1.580888,10.36666
5.622,3.024896,-1.579851,10.36781
5.642,3.026179,-1.579041,10.3684
5.662,3.026802,-1.578741,10.36953
5.682,3.02785,-1.578396,10.37137
5.702,3.028601,-1.578007,10.3715
5.722,3.030038,-1.57731,10.37054
5.742,3.030264,-1.575783,10.36711
5.762,3.032498,-1.574486,10.36871
5.782,3.031765,-1.57744,10.37314
5.802,3.033363,-1.578065,10.37143
5.822,3.036907,-1.575549,10.37129
5.842,3.034813,-1.574134,10.37553
5.862,3.035255,-1.574171,10.37808
5.882,3.03811,-1.575356,10.3782
5.902,3.041008,-1.574183,10.38005
5.922,3.041914,-1.57137,10.38244
5.942,3.044918,-1.568897,10.3824
5.962,3.049113,-1.565897,10.3816
5.982,3.052979,-1.564412,10.38418
6.002,3.055106,-1.563588,10.38461
6.022,3.059606,-1.558726,10.3812
6.042,3.063941,-1.553984,10.38218
6.062,3.066198,-1.554222,10.38409
6.082,3.070587,-1.552758,10.38277
6.102,3.078021,-1.542928,10.36922
6.122,3.090839,-1.534658,10.36793
6.142,3.089571,-1.545025,10.38384
6.162,3.081635,-1.560819,10.3938
6.182,3.087426,-1.557876,10.3785
6.202,3.096368,-1.544691,10.38204
6.222,3.097702,-1.542867,10.39336
6.242,3.102159,-1.546377,10.39345
6.262,3.110522,-1.54626,10.3856
6.282,3.117389,-1.536543,10.3851
6.302,3.116598,-1.529749,10.38964
6.322,3.126851,-1.52185,10.38278
6.342,3.147465,-1.510055,10.35877
6.362,3.174696,-1.502137,10.35141
6.382,3.16524,-1.511872,10.37811
6.402,3.149533,-1.518516,10.40321
6.422,3.147654,-1.528997,10.37989
6.442,3.159775,-1.529126,10.37001
6.462,3.161146,-1.521065,10.37544
6.482,3.164657,-1.516245,10.38213
6.502,3.179386,-1.511186,10.3718
6.522,3.184463,-1.510511,10.37039
6.542,3.184318,-1.512285,10.37517
6.562,3.191763,-1.516843,10.37231
6.582,3.19686,-1.524994,10.36948
6.602,3.200278,-1.535338,10.37886
6.622,3.206415,-1.555993,10.36866
6.642,3.217638,-1.566243,10.35973
6.662,3.2208,-1.577731,10.36148
6.682,3.223954,-1.589391,10.35981
6.702,3.23493,-1.593991,10.34973
6.722,3.237943,-1.602855,10.34981
6.742,3.239705,-1.614647,10.35264
6.762,3.243628,-1.620168,10.34931
6.782,3.251726,-1.623623,10.34479
6.802,3.257635,-1.633627,10.34219
6.822,3.261116,-1.641903,10.34322
6.842,3.265016,-1.652898,10.33896
6.862,3.274169,-1.665961,10.3281
6.882,3.277245,-1.677888,10.33065
6.902,3.280026,-1.684022,10.33726
6.922,3.285772,-1.687772,10.33676
6.942,3.293113,-1.684876,10.33331
6.962,3.299016,-1.680813,10.33357
6.982,3.301843,-1.684499,10.33977
7.002,3.303684,-1.692147,10.3461
7.022,3.308835,-1.696079,10.34449
7.042,3.315634,-1.69899,10.34031
7.062,3.321719,-1.70429,10.34146
7.082,3.328197,-1.705036,10.33656
7.102,3.339687,-1.696772,10.32557
7.122,3.348213,-1.688495,10.31923
7.202,3.354331,-1.686047,10.32207
7.222,3.36204,-1.688652,10.32142
7.242,3.370605,-1.689027,10.31841
7.262,3.37942,-1.686742,10.31305
7.282,3.388171,-1.683665,10.31184
7.302,3.395972,-1.682319,10.31186
7.322,3.403767,-1.682064,10.311
7.342,3.411532,-1.680829,10.31
7.362,3.418669,-1.676878,10.31033
7.382,3.425256,-1.671338,10.31298
7.402,3.434697,-1.667146,10.30808
7.422,3.444787,-1.666252,10.30044
7.442,3.452692,-1.669988,10.29706
7.462,3.459848,-1.670072,10.29548
7.482,3.46813,-1.667545,10.2921
7.502,3.476879,-1.661476,10.28995
7.522,3.483913,-1.658508,10.28921
7.542,3.491356,-1.659257,10.28735
7.562,3.498604,-1.660309,10.28207
7.582,3.508342,-1.654169,10.27842
7.602,3.514894,-1.647252,10.28035
7.622,3.521931,-1.646725,10.27847
7.642,3.529089,-1.6491,10.27571
7.662,3.535577,-1.649273,10.27375
7.682,3.543053,-1.644871,10.27209
7.702,3.550072,-1.64092,10.27046
7.722,3.556924,-1.641629,10.269
7.742,3.564355,-1.641493,10.26613
7.762,3.571759,-1.637073,10.26443
7.782,3.57806,-1.63265,10.26371
7.802,3.585016,-1.631431,10.26266
7.822,3.591351,-1.631612,10.26061
7.842,3.598007,-1.628824,10.25808
7.862,3.605649,-1.624147,10.25644
7.882,3.612329,-1.620571,10.25529
7.902,3.617937,-1.619329,10.25361
7.922,3.624685,-1.617788,10.25153
7.942,3.63218,-1.614563,10.24874
7.962,3.639242,-1.611298,10.24748
7.982,3.644796,-1.609958,10.2463
8.002,3.650174,-1.608726,10.24485
8.022,3.656194,-1.60619,10.24332
8.042,3.66311,-1.602985,10.24175
8.062,3.669719,-1.600841,10.24027
8.082,3.675136,-1.600299,10.23888
8.102,3.681552,-1.598686,10.23674
8.122,3.687664,-1.595101,10.23497
8.142,3.692973,-1.592078,10.23383
8.162,3.698541,-1.592151,10.23214
8.182,3.703885,-1.592438,10.23059
8.202,3.710277,-1.589921,10.22848
8.222,3.716078,-1.588363,10.2268
8.242,3.721175,-1.587372,10.22557
8.262,3.726604,-1.585959,10.2249
8.282,3.731907,-1.582789,10.22352
8.302,3.737612,-1.580296,10.22213
8.322,3.742374,-1.580678,10.22082
8.342,3.747256,-1.580506,10.21951
8.362,3.752711,-1.57636,10.21827
8.382,3.754808,-1.572903,10.21863
8.402,3.759589,-1.573622,10.21753
8.422,3.76485,-1.572179,10.21577
8.442,3.770512,-1.56874,10.21479
8.462,3.774873,-1.56895,10.21365
8.482,3.779023,-1.567985,10.21248
8.502,3.783634,-1.565593,10.2106
8.522,3.788271,-1.564877,10.20948
8.542,3.792119,-1.564335,10.20895
8.562,3.796264,-1.562937,10.20804
8.582,3.801948,-1.559375,10.20577
8.602,3.807144,-1.55647,10.20449
8.622,3.810971,-1.556899,10.2041
8.642,3.814807,-1.557706,10.20307
8.662,3.819324,-1.554507,10.20143
8.682,3.82425,-1.552274,10.20009
8.702,3.827476,-1.551643,10.19965
8.722,3.831913,-1.549798,10.1984
8.742,3.835972,-1.547156,10.19721
8.762,3.840109,-1.54593,10.19534
8.782,3.84442,-1.54486,10.19421
8.802,3.847635,-1.543418,10.19424
8.822,3.851153,-1.541056,10.19355
8.842,3.855211,-1.53946,10.19284
8.862,3.859682,-1.537616,10.19149
8.882,3.863415,-1.535672,10.19056
8.902,3.867015,-1.533986,10.18957
8.922,3.870004,-1.533658,10.18888
8.942,3.873801,-1.532878,10.18791
8.962,3.878039,-1.530933,10.18666
8.982,3.882019,-1.529079,10.18578
9.002,3.885408,-1.527483,10.18519
9.022,3.888812,-1.525927,10.18457
9.042,3.892086,-1.525631,10.18349
9.062,3.895662,-1.524309,10.18267
9.082,3.898915,-1.522354,10.18181
9.102,3.901968,-1.521184,10.18126
9.122,3.905039,-1.519667,10.18046
9.142,3.90894,-1.518261,10.17912
9.162,3.912156,-1.517923,10.17877
9.182,3.915005,-1.517396,10.1779
