gyro_time_list,gyro_x_list,gyro_y_list,gyro_z_list
1.083,0.129767,0.158812,-0.276188
1.103,0.077274,0.153749,-0.24348
1.123,0.029521,0.144065,-0.206771
1.143,-0.010359,0.134154,-0.166296
1.163,-0.039823,0.125723,-0.123077
1.183,-0.057231,0.118296,-0.079348
1.203,-0.068365,0.111233,-0.036106
1.223,-0.081846,0.104446,0.006031
1.243,-0.098465,0.098034,0.04677
1.263,-0.115578,0.091562,0.086065
1.283,-0.13308,0.084422,0.123729
1.303,-0.152733,0.076472,0.159743
1.323,-0.17502,0.067532,0.193574
1.343,-0.199625,0.058025,0.224963
1.363,-0.2262,0.04801,0.253673
1.383,-0.255332,0.037057,0.279288
1.403,-0.288644,0.025099,0.301262
1.423,-0.326868,0.012803,0.319306
1.443,-0.36859,0.000341,0.33344
1.463,-0.411928,-0.012252,0.344036
1.483,-0.454943,-0.02478,0.35172
1.503,-0.495826,-0.036524,0.357048
1.523,-0.532934,-0.047232,0.360252
1.543,-0.565641,-0.05681,0.362024
1.563,-0.594532,-0.065929,0.363119
1.583,-0.623259,-0.075532,0.364123
1.603,-0.655104,-0.0854,0.365491
1.623,-0.689881,-0.094695,0.367391
1.643,-0.725477,-0.102477,0.369789
1.663,-0.756095,-0.107913,0.372628
1.683,-0.776068,-0.111417,0.375732
1.703,-0.786551,-0.114145,0.379436
1.723,-0.791408,-0.116327,0.384738
1.743,-0.792188,-0.116586,0.391023
1.763,-0.787308,-0.114668,0.398247
1.783,-0.77691,-0.11141,0.405653
1.803,-0.763247,-0.107485,0.41298
1.823,-0.747595,-0.102376,0.419092
1.843,-0.72786,-0.09582,0.423572
1.863,-0.701816,-0.088204,0.426608
1.883,-0.666677,-0.080339,0.428554
1.903,-0.620595,-0.074044,0.429087
1.923,-0.567028,-0.070944,0.428127
1.943,-0.510217,-0.071459,0.425002
1.963,-0.452931,-0.075715,0.419143
1.983,-0.397126,-0.083961,0.410265
2.003,-0.34354,-0.096554,0.397548
2.023,-0.292997,-0.11392,0.381039
2.043,-0.247665,-0.136403,0.360897
2.063,-0.208961,-0.16441,0.33702
2.083,-0.177962,-0.197682,0.309363
2.103,-0.156594,-0.23452,0.277474
2.123,-0.143602,-0.274839,0.241642
2.143,-0.136873,-0.319496,0.20211
2.163,-0.133721,-0.367447,0.158769
2.183,-0.13058,-0.417782,0.112527
2.203,-0.126546,-0.469911,0.062304
2.223,-0.119989,-0.524054,0.008473
2.243,-0.111444,-0.580586,-0.050212
2.263,-0.103421,-0.63631,-0.115073
2.283,-0.09726,-0.687262,-0.18426
2.303,-0.089394,-0.732552,-0.255791
2.323,-0.073133,-0.772088,-0.3259
2.343,-0.042571,-0.806342,-0.392503
2.363,0.004882,-0.834386,-0.453676
2.383,0.065933,-0.856167,-0.507694
2.403,0.13352,-0.87198,-0.552235
2.423,0.202214,-0.879129,-0.585188
2.443,0.277404,-0.878673,-0.604884
2.463,0.36821,-0.876469,-0.618114
2.483,0.465097,-0.873492,-0.628722
2.503,0.528012,-0.86259,-0.640829
2.523,0.510635,-0.830953,-0.65335
2.543,0.412473,-0.771494,-0.664183
2.563,0.289883,-0.671122,-0.664246
2.583,0.245507,-0.551361,-0.640565
2.603,0.34233,-0.43772,-0.630519
2.623,0.51433,-0.337565,-0.624304
2.643,0.695261,-0.256658,-0.616067
2.663,0.836216,-0.23253,-0.599376
2.683,0.817817,-0.252857,-0.58238
2.703,0.688887,-0.263346,-0.599648
2.723,0.480069,-0.192327,-0.647142
2.743,0.203831,-0.353494,-0.746776
2.763,-0.086995,-0.379884,-0.860193
2.783,-0.38561,-0.36429,-0.98058
2.803,-0.684879,-0.365328,-1.10701
2.823,-0.978084,-0.293719,-1.237326
2.843,-1.162806,-0.14526,-1.366104
2.863,-1.089028,0.036772,-1.495593
2.883,-0.905037,0.206669,-1.510298
2.903,-0.632908,0.314802,-1.525978
2.923,-0.707863,0.339284,-1.515702
2.943,-0.536883,0.336346,-1.466267
2.963,-0.292734,0.338846,-1.422901
2.983,-0.190121,0.340924,-1.376945
3.003,-0.08497,0.344585,-1.331892
3.023,0.01108,0.347389,-1.292342
3.043,0.06018,0.344587,-1.239706
3.063,0.053964,0.335537,-1.18489
3.183,0.051222,0.31769,-1.125567
3.203,0.058389,0.298645,-1.068734
3.223,0.071301,0.281033,-1.014695
3.243,0.084637,0.267075,-0.963266
3.263,0.101234,0.253427,-0.914543
3.283,0.123594,0.239546,-0.871087
3.303,0.143084,0.2262,-0.831868
3.323,0.15201,0.214362,-0.795068
3.343,0.152407,0.204064,-0.760564
3.363,0.150002,0.195777,-0.728259
3.383,0.148447,0.189111,-0.696284
3.403,0.147458,0.183274,-0.666066
3.423,0.145696,0.178774,-0.639179
3.443,0.142121,0.17526,-0.61486
3.463,0.135883,0.171799,-0.593469
3.483,0.128109,0.168051,-0.5737
3.503,0.121019,0.164134,-0.555217
3.523,0.115847,0.161249,-0.536151
3.543,0.111096,0.15847,-0.518985
3.563,0.104414,0.155968,-0.505275
3.583,0.093756,0.154399,-0.492611
3.603,0.080657,0.153711,-0.480546
3.623,0.067962,0.15325,-0.468483
3.643,0.059064,0.152395,-0.457537
3.663,0.053446,0.15115,-0.446884
3.683,0.048919,0.149317,-0.43628
3.703,0.044933,0.146998,-0.425475
3.723,0.041454,0.144284,-0.414626
3.743,0.039207,0.141489,-0.404014
3.763,0.037799,0.138625,-0.393687
3.783,0.036402,0.135891,-0.383812
3.803,0.034776,0.133322,-0.374533
3.823,0.033216,0.131076,-0.365692
3.843,0.031686,0.128966,-0.357201
3.863,0.030254,0.126736,-0.348892
3.883,0.029332,0.124222,-0.340769
3.903,0.028837,0.121619,-0.332882
3.923,0.028748,0.119123,-0.324792
3.943,0.02895,0.11665,-0.316772
3.963,0.02926,0.114165,-0.308958
3.983,0.029625,0.112136,-0.301393
4.003,0.03017,0.110583,-0.293774
4.023,0.030419,0.109029,-0.286966
4.043,0.029388,0.107518,-0.281121
4.063,0.027063,0.106365,-0.27543
4.083,0.024336,0.105467,-0.270022
4.103,0.022073,0.104718,-0.264989
4.123,0.019992,0.104139,-0.260078
4.143,0.018194,0.103777,-0.254809
4.163,0.016579,0.103401,-0.249559
4.183,0.015059,0.102919,-0.244501
4.203,0.013896,0.102639,-0.239445
4.223,0.014026,0.102473,-0.233516
4.243,0.015999,0.102211,-0.227725
4.263,0.018396,0.101964,-0.222646
4.283,0.018119,0.101889,-0.217691
4.303,0.015606,0.101545,-0.213242
4.323,0.012933,0.101186,-0.209034
4.343,0.011875,0.100833,-0.205787
4.363,0.012133,0.10043,-0.201776
4.383,0.010489,0.099608,-0.19805
4.403,0.00676,0.098834,-0.19425
4.423,0.00339,0.098288,-0.190733
4.443,0.00331,0.097977,-0.187262
4.463,0.004084,0.09742,-0.18436
4.483,0.003439,0.096834,-0.181851
4.503,0.001967,0.096471,-0.179391
4.523,0.000759,0.096075,-0.177144
4.543,-0.000158,0.095587,-0.175271
4.563,-0.000983,0.095083,-0.173097
4.583,-0.001835,0.094403,-0.17101
4.603,-0.002623,0.093521,-0.1693
4.623,-0.003467,0.092557,-0.167517
4.643,-0.003702,0.091653,-0.165571
4.663,-0.003385,0.090423,-0.163553
4.683,-0.003053,0.088879,-0.16183
4.703,-0.002815,0.087455,-0.15979
4.723,-0.002739,0.086138,-0.158213
4.743,-0.003065,0.084999,-0.156566
4.763,-0.003439,0.08383,-0.154975
4.783,-0.003408,0.082557,-0.153354
4.803,-0.00313,0.081153,-0.151905
4.823,-0.002927,0.080051,-0.150579
4.843,-0.002719,0.079307,-0.148574
4.863,-0.002402,0.078521,-0.146505
4.883,-0.001829,0.077346,-0.144749
4.903,-0.001924,0.076408,-0.143401
4.923,-0.001796,0.075885,-0.141416
4.943,-0.001541,0.075066,-0.140204
4.963,-0.0009,0.07379,-0.139216
4.983,-0.001279,0.072416,-0.138858
5.003,-0.002185,0.072079,-0.137319
5.023,0.001598,0.071782,-0.135891
5.043,0.005271,0.070803,-0.135635
5.063,0.006545,0.070083,-0.134833
5.083,0.006061,0.069746,-0.132883
5.103,0.006321,0.069038,-0.131398
5.123,0.007265,0.067973,-0.130211
5.143,0.007239,0.06705,-0.129021
5.163,0.006997,0.066692,-0.12711
6.628,0.005414,0.066906,-0.127409
6.648,0.003505,0.067293,-0.127485
6.668,0.000805,0.067588,-0.126955
6.688,-0.002267,0.067759,-0.125922
6.708,-0.004616,0.067869,-0.124527
6.728,-0.005882,0.067964,-0.12311
6.748,-0.006704,0.067848,-0.12174
6.768,-0.007593,0.067531,-0.120262
6.788,-0.008786,0.06719,-0.118782
6.808,-0.009692,0.066814,-0.117424
6.828,-0.009995,0.066441,-0.116192
6.848,-0.009819,0.065974,-0.115073
6.868,-0.009902,0.06552,-0.113943
6.888,-0.010401,0.065147,-0.112823
6.908,-0.010653,0.064753,-0.111687
6.928,-0.010614,0.064363,-0.110594
6.948,-0.010596,0.064025,-0.10954
6.968,-0.010792,0.063699,-0.108503
6.988,-0.010722,0.063245,-0.107632
7.008,-0.010632,0.062713,-0.106819
7.028,-0.01149,0.061936,-0.106024
7.048,-0.013121,0.061314,-0.105045
7.068,-0.014271,0.06094,-0.103949
7.088,-0.014833,0.060538,-0.102996
7.108,-0.015479,0.060025,-0.102222
7.128,-0.016241,0.059568,-0.101475
7.148,-0.01693,0.059148,-0.100727
7.168,-0.017445,0.058688,-0.099946
7.188,-0.017857,0.058213,-0.099165
7.208,-0.018269,0.057758,-0.098406
7.228,-0.018581,0.057363,-0.097648
7.248,-0.018814,0.056978,-0.096801
7.268,-0.019124,0.056598,-0.095959
7.288,-0.019596,0.056224,-0.095237
7.308,-0.019985,0.055848,-0.094587
7.328,-0.020277,0.05552,-0.093924
7.348,-0.020627,0.05521,-0.093204
7.368,-0.021179,0.054903,-0.092459
7.388,-0.021929,0.054572,-0.091783
7.408,-0.022617,0.054244,-0.091148
7.428,-0.023189,0.053985,-0.090505
7.448,-0.023709,0.05378,-0.089831
7.468,-0.024417,0.053635,-0.08914
7.488,-0.02538,0.053501,-0.088414
7.508,-0.026212,0.053274,-0.087703
7.528,-0.0267,0.052967,-0.087051
7.548,-0.027128,0.052654,-0.086445
7.568,-0.027661,0.052348,-0.085793
7.588,-0.028148,0.052057,-0.085134
7.608,-0.028466,0.051751,-0.084415
7.628,-0.028654,0.051438,-0.083633
7.648,-0.028882,0.05113,-0.082873
7.668,-0.029223,0.050799,-0.082182
7.688,-0.029625,0.050453,-0.081532
7.708,-0.029919,0.050155,-0.080869
7.728,-0.030144,0.049887,-0.080243
7.748,-0.030335,0.049619,-0.07963
7.768,-0.030578,0.049385,-0.078972
7.788,-0.030974,0.049144,-0.07833
7.808,-0.031532,0.048881,-0.077764
7.828,-0.03214,0.048616,-0.07723
7.848,-0.032716,0.048376,-0.076635
7.868,-0.033085,0.048112,-0.076006
7.888,-0.033261,0.047817,-0.075386
7.908,-0.033334,0.047548,-0.074794
7.928,-0.03356,0.047338,-0.074196
7.948,-0.033959,0.047186,-0.073594
7.968,-0.034335,0.046994,-0.072987
7.988,-0.034443,0.04672,-0.072392
8.008,-0.034433,0.046484,-0.071772
8.028,-0.034458,0.046279,-0.071145
8.048,-0.034549,0.046054,-0.070529
8.068,-0.034585,0.045814,-0.069857
8.088,-0.034711,0.045588,-0.069245
8.108,-0.034989,0.045345,-0.068704
8.128,-0.03524,0.04507,-0.068192
8.148,-0.035362,0.044867,-0.067661
8.168,-0.035371,0.044716,-0.067128
8.188,-0.035494,0.044548,-0.06664
8.208,-0.035787,0.044371,-0.066145
8.228,-0.036068,0.044187,-0.065596
8.248,-0.036254,0.043994,-0.065063
8.268,-0.036425,0.043794,-0.064615
8.288,-0.036642,0.043618,-0.064199
8.308,-0.036874,0.043475,-0.06376
8.328,-0.037103,0.043307,-0.063281
8.348,-0.037361,0.043069,-0.062766
8.368,-0.037678,0.042839,-0.062245
8.388,-0.038024,0.042629,-0.061744
8.408,-0.03823,0.0424,-0.061293
8.428,-0.038169,0.042148,-0.060871
8.448,-0.038071,0.041929,-0.060451
8.468,-0.038149,0.041767,-0.060001
8.488,-0.03835,0.041622,-0.059485
8.508,-0.038544,0.041449,-0.05897
8.528,-0.03863,0.041261,-0.058486
8.548,-0.038712,0.041065,-0.058028
8.568,-0.038803,0.040857,-0.057627
8.588,-0.039009,0.040651,-0.057249
8.608,-0.039313,0.040459,-0.056882
