gyro_time_list,gyro_x_list,gyro_y_list,gyro_z_list
0.345000,-2.129302,-0.410485,0.122972
0.365000,-2.122573,-0.398694,0.006662
0.385000,-2.088168,-0.389431,-0.078384
0.405000,-2.021909,-0.384431,-0.132768
0.425000,-1.934119,-0.384152,-0.161305
0.445000,-1.837523,-0.386323,-0.167166
0.465000,-1.742587,-0.390427,-0.154736
0.485000,-1.658312,-0.397027,-0.127499
0.505000,-1.590522,-0.404630,-0.090066
0.525000,-1.538305,-0.413289,-0.041566
0.545000,-1.501103,-0.424114,0.022078
0.565000,-1.487297,-0.432751,0.098209
0.585000,-1.502071,-0.433423,0.179461
0.605000,-1.524004,-0.432229,0.257011
0.625000,-1.517877,-0.433448,0.328506
0.645000,-1.472636,-0.432780,0.387724
0.665000,-1.401948,-0.427988,0.435874
0.685000,-1.323507,-0.417956,0.466675
0.705000,-1.243197,-0.403651,0.479753
0.725000,-1.163219,-0.385988,0.479777
0.745000,-1.091796,-0.366850,0.470006
0.765000,-1.036510,-0.347288,0.454396
0.785000,-0.995159,-0.327315,0.436150
0.805000,-0.956671,-0.308065,0.417764
0.825000,-0.916956,-0.290839,0.399683
0.845000,-0.877017,-0.275997,0.382758
0.865000,-0.843827,-0.262267,0.365930
0.885000,-0.821115,-0.248887,0.348519
0.905000,-0.803907,-0.235972,0.331114
0.925000,-0.784316,-0.223616,0.315170
0.945000,-0.762569,-0.212317,0.302543
0.965000,-0.744201,-0.201535,0.292273
0.985000,-0.730378,-0.191237,0.283146
1.005000,-0.718656,-0.181149,0.276432
1.025000,-0.707956,-0.170193,0.272127
1.045000,-0.693462,-0.159186,0.270605
1.065000,-0.669851,-0.149602,0.270792
1.085000,-0.639283,-0.140681,0.272190
1.105000,-0.609000,-0.131607,0.274085
1.125000,-0.581816,-0.122867,0.276674
1.145000,-0.556151,-0.114813,0.280107
1.165000,-0.528133,-0.107993,0.285932
1.185000,-0.500761,-0.101592,0.293421
1.205000,-0.477092,-0.095599,0.301609
1.225000,-0.452618,-0.090945,0.312356
1.245000,-0.426482,-0.088454,0.325530
1.265000,-0.400864,-0.087521,0.340888
1.285000,-0.371020,-0.088060,0.357467
1.305000,-0.329993,-0.089408,0.374989
1.325000,-0.283329,-0.089837,0.392597
1.345000,-0.240674,-0.088926,0.407880
1.365000,-0.202544,-0.087193,0.418161
1.385000,-0.158734,-0.085492,0.424810
1.405000,-0.105603,-0.082261,0.428676
1.425000,-0.056023,-0.076580,0.428786
1.445000,-0.015896,-0.069866,0.424208
1.465000,0.018978,-0.064690,0.412656
1.485000,0.055970,-0.062099,0.392680
1.505000,0.099031,-0.061430,0.365597
1.525000,0.141951,-0.062385,0.330285
1.545000,0.191022,-0.065795,0.286946
1.565000,0.267293,-0.070003,0.241972
1.585000,0.374279,-0.078964,0.197923
1.605000,0.478262,-0.090965,0.151306
1.625000,0.534138,-0.100355,0.101956
1.645000,0.525319,-0.166147,0.040023
1.665000,0.332804,-0.253659,-0.088833
1.685000,0.161549,-0.350814,-0.230459
1.705000,0.366889,-0.363082,-0.384049
1.725000,0.581558,-0.350664,-0.509786
1.745000,0.801939,-0.361053,-0.623670
1.765000,0.876966,-0.396253,-0.763278
1.785000,0.819615,-0.468631,-0.789882
1.805000,0.612040,-0.560659,-0.744010
1.825000,0.356726,-0.642608,-0.765798
1.845000,0.247838,-0.719927,-0.766731
1.865000,0.388763,-0.797525,-0.780087
1.885000,0.550356,-0.879082,-0.825929
1.905000,0.519024,-0.934927,-0.860093
1.925000,0.324458,-0.961665,-0.965471
1.945000,0.130922,-0.949332,-1.066041
1.965000,0.099635,-0.894296,-1.086810
1.985000,0.126272,-0.860265,-1.093607
2.005000,0.222855,-0.834147,-1.048033
2.025000,0.404105,-0.800323,-0.968451
2.045000,0.593420,-0.767557,-0.862069
2.065000,0.764174,-0.742694,-0.777697
2.085000,0.813507,-0.708949,-0.742449
2.105000,0.765478,-0.669809,-0.737242
2.125000,0.725094,-0.638622,-0.744731
2.145000,0.730892,-0.613422,-0.744320
2.165000,0.744524,-0.594479,-0.726251
2.185000,0.762271,-0.579542,-0.704748
2.205000,0.780146,-0.564873,-0.687432
2.225000,0.766521,-0.550853,-0.664007
2.245000,0.697973,-0.538865,-0.638444
2.265000,0.593070,-0.529463,-0.620102
2.285000,0.501997,-0.520173,-0.610791
2.305000,0.447868,-0.507390,-0.601397
2.325000,0.409395,-0.491348,-0.586386
2.366000,0.363307,-0.471998,-0.562245
2.386000,0.333401,-0.453907,-0.541227
2.406000,0.321772,-0.435202,-0.520269
2.426000,0.314709,-0.415698,-0.497740
2.446000,0.300656,-0.397458,-0.475810
2.466000,0.279165,-0.382736,-0.457003
2.486000,0.255413,-0.370911,-0.441748
2.506000,0.233817,-0.361547,-0.429169
2.526000,0.218131,-0.353518,-0.417653
2.546000,0.206713,-0.346111,-0.407432
2.566000,0.196934,-0.339071,-0.398172
2.586000,0.188154,-0.331802,-0.388862
2.606000,0.179916,-0.324048,-0.378840
2.626000,0.171861,-0.316237,-0.368380
2.646000,0.164787,-0.308847,-0.357787
2.666000,0.160043,-0.301360,-0.347130
2.686000,0.156171,-0.294058,-0.336946
2.706000,0.150938,-0.287472,-0.328022
2.726000,0.145054,-0.281618,-0.320281
2.746000,0.141132,-0.276210,-0.313251
2.766000,0.139290,-0.271072,-0.306631
2.786000,0.137610,-0.266034,-0.300238
2.806000,0.134336,-0.261000,-0.293901
2.826000,0.128354,-0.256239,-0.287514
2.846000,0.121490,-0.251840,-0.281021
2.866000,0.117866,-0.247362,-0.274130
2.886000,0.116693,-0.242828,-0.266663
2.906000,0.115619,-0.238197,-0.259191
2.926000,0.113503,-0.232964,-0.251943
2.946000,0.108504,-0.227320,-0.244770
2.966000,0.100272,-0.221813,-0.238237
2.986000,0.088820,-0.217048,-0.232291
3.006000,0.076281,-0.212585,-0.226543
3.026000,0.066577,-0.208309,-0.220879
3.046000,0.062402,-0.203667,-0.216223
3.066000,0.062992,-0.198466,-0.213168
3.086000,0.063885,-0.193007,-0.210160
3.106000,0.064118,-0.188626,-0.207901
3.126000,0.064910,-0.185675,-0.207575
3.146000,0.069819,-0.184158,-0.207610
3.166000,0.078084,-0.184222,-0.207443
3.186000,0.082334,-0.184913,-0.205900
3.206000,0.078113,-0.184593,-0.203044
3.226000,0.067201,-0.182195,-0.199863
3.246000,0.054751,-0.177562,-0.196129
3.266000,0.043451,-0.170856,-0.189855
3.286000,0.036514,-0.163251,-0.181399
3.306000,0.038459,-0.155406,-0.171397
3.326000,0.046368,-0.148163,-0.162667
3.346000,0.050091,-0.143565,-0.158471
3.366000,0.049397,-0.141909,-0.157624
3.386000,0.048476,-0.142138,-0.158139
3.406000,0.045964,-0.144099,-0.160129
3.426000,0.040230,-0.147004,-0.162516
3.446000,0.030423,-0.149878,-0.164170
3.466000,0.017756,-0.151868,-0.164222
3.486000,0.004879,-0.152254,-0.162512
3.506000,-0.006424,-0.150903,-0.158911
3.526000,-0.014277,-0.147950,-0.153406
3.546000,-0.017902,-0.143686,-0.146093
3.566000,-0.017614,-0.139005,-0.137591
3.586000,-0.014078,-0.134197,-0.128509
3.606000,-0.010076,-0.129706,-0.120285
3.626000,-0.011201,-0.126391,-0.115216
3.646000,-0.018527,-0.124836,-0.113153
3.666000,-0.024964,-0.124108,-0.112073
3.686000,-0.028530,-0.123214,-0.111772
3.706000,-0.032507,-0.122244,-0.111683
3.726000,-0.038243,-0.121006,-0.111274
3.746000,-0.045393,-0.119308,-0.110949
3.766000,-0.051587,-0.117268,-0.110243
3.786000,-0.053295,-0.115184,-0.109116
3.806000,-0.049686,-0.113212,-0.107925
3.826000,-0.040942,-0.111666,-0.106436
3.846000,-0.027747,-0.109848,-0.103605
3.866000,-0.017680,-0.108061,-0.101795
3.886000,-0.015517,-0.106567,-0.101505
3.906000,-0.018865,-0.105476,-0.101918
3.926000,-0.020653,-0.104299,-0.101670
3.946000,-0.018680,-0.102739,-0.100949
3.966000,-0.015977,-0.101168,-0.099915
3.986000,-0.015511,-0.099625,-0.098724
4.006000,-0.018208,-0.098129,-0.097804
4.026000,-0.023080,-0.096632,-0.097012
4.046000,-0.027428,-0.095168,-0.095858
4.066000,-0.029578,-0.093550,-0.094306
4.086000,-0.030377,-0.091853,-0.092680
4.106000,-0.030966,-0.090406,-0.091223
4.126000,-0.031503,-0.089317,-0.089595
4.146000,-0.032587,-0.088479,-0.088092
4.166000,-0.034088,-0.087696,-0.087009
4.186000,-0.035124,-0.086842,-0.086246
4.206000,-0.035864,-0.085893,-0.085424
4.226000,-0.036163,-0.084826,-0.084671
4.246000,-0.035285,-0.083642,-0.083949
4.266000,-0.033392,-0.082426,-0.083117
4.286000,-0.031398,-0.081207,-0.082345
4.306000,-0.029962,-0.079995,-0.081688
4.326000,-0.029092,-0.078787,-0.081150
4.346000,-0.028579,-0.077475,-0.080758
4.387000,-0.028737,-0.075580,-0.080087
4.407000,-0.028049,-0.073114,-0.079073
4.427000,-0.025056,-0.070025,-0.077744
4.447000,-0.019402,-0.066441,-0.076236
4.467000,-0.012584,-0.062676,-0.074521
4.487000,-0.005952,-0.059008,-0.072709
4.507000,-0.000539,-0.055701,-0.070892
4.527000,0.003258,-0.052670,-0.069544
4.547000,0.006648,-0.049636,-0.068744
4.567000,0.011285,-0.046939,-0.067985
4.587000,0.015883,-0.045013,-0.067085
4.607000,0.018853,-0.043402,-0.066689
4.627000,0.020862,-0.043137,-0.066652
4.647000,0.020444,-0.043733,-0.065875
4.667000,0.018103,-0.043774,-0.064723
4.687000,0.016968,-0.042096,-0.062866
4.707000,0.018199,-0.039333,-0.060014
4.727000,0.018650,-0.037169,-0.057108
4.747000,0.017493,-0.036557,-0.055341
4.767000,0.016942,-0.037000,-0.055545
4.787000,0.017298,-0.037869,-0.057297
4.807000,0.017612,-0.038818,-0.059415
4.827000,0.016456,-0.039391,-0.061266
4.847000,0.011962,-0.039843,-0.062371
4.867000,0.004760,-0.039702,-0.062072
4.887000,-0.000202,-0.037672,-0.060435
4.907000,-0.001186,-0.034376,-0.058463
4.927000,-0.003022,-0.030474,-0.056926
4.947000,-0.006411,-0.026430,-0.055384
4.967000,-0.010778,-0.021916,-0.053851
4.987000,-0.014612,-0.016273,-0.051530
5.007000,-0.015768,-0.008559,-0.048146
5.027000,-0.012168,0.002053,-0.043647
5.047000,-0.004935,0.014694,-0.037733
5.067000,-0.000417,0.027316,-0.031167
5.087000,-0.003287,0.039559,-0.021866
5.107000,-0.009352,0.051646,-0.012307
5.127000,-0.011259,0.062742,-0.006372
5.147000,-0.012414,0.072019,-0.002551
5.167000,-0.017240,0.079021,0.001511
5.187000,-0.022848,0.083920,0.005715
5.207000,-0.025038,0.087547,0.009791
5.227000,-0.023806,0.090290,0.013790
5.247000,-0.023713,0.091706,0.018163
5.267000,-0.027703,0.092071,0.023180
5.287000,-0.032351,0.092597,0.028462
5.307000,-0.033715,0.093867,0.034097
5.327000,-0.033371,0.095885,0.040553
5.347000,-0.035636,0.098395,0.047364
5.367000,-0.041688,0.101604,0.053655
5.387000,-0.046745,0.105378,0.058940
5.407000,-0.046758,0.109736,0.064092
5.427000,-0.045047,0.114322,0.068634
5.447000,-0.045514,0.119020,0.071903
5.467000,-0.047009,0.124090,0.073984
5.487000,-0.047435,0.129377,0.074860
5.507000,-0.046837,0.134507,0.074875
5.527000,-0.046131,0.139361,0.074541
5.547000,-0.045435,0.143898,0.074001
5.567000,-0.044075,0.148068,0.073277
5.587000,-0.041654,0.151769,0.072711
5.607000,-0.039624,0.154723,0.072562
5.627000,-0.039589,0.156828,0.072495
5.647000,-0.040198,0.158301,0.072709
5.667000,-0.040114,0.159289,0.073110
5.687000,-0.039766,0.159829,0.073524
5.707000,-0.039763,0.159825,0.073809
5.727000,-0.040603,0.159326,0.073753
5.747000,-0.041623,0.158622,0.073584
5.767000,-0.041906,0.158108,0.073452
5.787000,-0.041833,0.157894,0.073341
5.807000,-0.042328,0.157937,0.073298
5.827000,-0.043419,0.158196,0.073692
5.847000,-0.044661,0.158775,0.074084
5.867000,-0.045844,0.159672,0.074639
5.887000,-0.045821,0.161027,0.074825
5.907000,-0.045527,0.162560,0.075067
5.927000,-0.045610,0.164200,0.074910
5.947000,-0.046651,0.165676,0.075446
5.967000,-0.047512,0.167100,0.074940
5.987000,-0.047334,0.168547,0.073626
6.007000,-0.046605,0.170071,0.072541
6.027000,-0.045406,0.171649,0.071356
6.047000,-0.044368,0.173148,0.070469
6.067000,-0.043770,0.174496,0.069831
6.087000,-0.043076,0.175741,0.069382
6.107000,-0.042404,0.176924,0.069121
6.127000,-0.042343,0.178063,0.068823
6.147000,-0.043057,0.179187,0.068562
6.167000,-0.044443,0.180200,0.068493
6.187000,-0.046358,0.181000,0.068104
6.207000,-0.047939,0.181685,0.067775
6.227000,-0.049077,0.182508,0.067484
6.247000,-0.049800,0.183423,0.067220
6.267000,-0.050455,0.184299,0.066868
6.287000,-0.051125,0.185085,0.066271
6.307000,-0.051445,0.185905,0.065699
6.327000,-0.051825,0.186756,0.065138
6.347000,-0.052467,0.187610,0.064503
6.367000,-0.053272,0.188425,0.064003
