accel_time_list,accel_x_list,accel_y_list,accel_z_list
0.205,-0.466869,-0.162806,10.60871
0.225,-0.45849,-0.214281,10.5704
0.245,-0.491613,-0.23225,10.59835
0.265,-0.526756,-0.128003,10.69021
0.285,-0.544979,-0.057099,10.74787
0.305,-0.569925,-0.039489,10.76909
0.325,-0.582263,-0.034844,10.76806
0.345,-0.592415,-0.04702,10.75947
0.365,-0.593634,-0.063711,10.74129
0.385,-0.58836,-0.061635,10.72747
0.405,-0.586668,-0.053149,10.71156
0.425,-0.580854,-0.037843,10.70473
0.445,-0.573345,-0.018759,10.71084
0.465,-0.567595,0.000551,10.71107
0.485,-0.562931,0.011009,10.70017
0.505,-0.552382,0.014403,10.68988
0.525,-0.550862,0.016824,10.69103
0.545,-0.549245,0.007938,10.69809
0.565,-0.527379,-0.042893,10.70009
0.585,-0.527346,-0.164351,10.71881
0.605,-0.537561,-0.231799,10.78315
0.625,-0.542346,-0.306816,10.87073
0.645,-0.555878,-0.388657,10.98448
0.665,-0.574985,-0.464561,11.12642
0.685,-0.598569,-0.544064,11.26714
0.705,-0.657749,-0.637499,11.3924
0.725,-0.73908,-0.717499,11.51352
0.745,-0.805291,-0.735449,11.65225
0.765,-0.864859,-0.691133,11.78093
0.785,-0.930761,-0.610758,11.8853
0.805,-0.996713,-0.525796,11.9831
0.825,-1.032716,-0.442142,12.08544
0.845,-1.061675,-0.371153,12.15865
0.865,-1.115433,-0.317555,12.20656
0.885,-1.185894,-0.289584,12.23876
0.905,-1.256726,-0.272506,12.27187
0.925,-1.309121,-0.252131,12.30687
0.945,-1.376543,-0.246516,12.31667
0.965,-1.462566,-0.253926,12.29506
0.985,-1.541961,-0.270461,12.25854
1.005,-1.607034,-0.300693,12.21696
1.025,-1.66875,-0.338662,12.16063
1.045,-1.735272,-0.372338,12.08011
1.065,-1.806077,-0.390349,11.97731
1.085,-1.883528,-0.381486,11.86262
1.105,-1.964607,-0.354217,11.73154
1.125,-2.046198,-0.337797,11.58148
1.145,-2.133312,-0.335267,11.41105
1.165,-2.220821,-0.336742,11.22103
1.185,-2.300929,-0.342226,10.9997
1.205,-2.388883,-0.358897,10.76217
1.225,-2.491574,-0.370553,10.52037
1.245,-2.583681,-0.364058,10.2895
1.265,-2.665341,-0.347479,10.06511
1.285,-2.762738,-0.341032,9.841452
1.305,-2.852729,-0.335979,9.614911
1.325,-2.925071,-0.342204,9.381432
1.345,-3.010468,-0.360944,9.141697
1.365,-3.11133,-0.384343,8.908477
1.385,-3.196747,-0.405312,8.688966
1.405,-3.278529,-0.424528,8.490859
1.425,-3.367463,-0.444021,8.312673
1.445,-3.457742,-0.46832,8.125875
1.465,-3.55951,-0.4975,7.942571
1.485,-3.677418,-0.520849,7.766312
1.505,-3.795464,-0.530944,7.612256
1.525,-3.897436,-0.532743,7.464681
1.545,-4.01967,-0.536137,7.302301
1.565,-4.142017,-0.539726,7.132712
1.585,-4.251358,-0.544838,6.960745
1.605,-4.372037,-0.549206,6.793054
1.625,-4.501375,-0.551697,6.62906
1.645,-4.628754,-0.552317,6.472135
1.665,-4.746911,-0.554253,6.316509
1.685,-4.870177,-0.557687,6.168467
1.705,-4.998044,-0.561782,6.034264
1.725,-5.11153,-0.567667,5.904535
1.745,-5.214624,-0.573143,5.787636
1.765,-5.322932,-0.57305,5.699456
1.785,-5.426787,-0.573113,5.628987
1.805,-5.522624,-0.578451,5.570146
1.825,-5.615115,-0.585093,5.521481
1.845,-5.709486,-0.587472,5.482088
1.865,-5.794965,-0.588657,5.445075
1.885,-5.87511,-0.595035,5.406898
1.905,-5.95634,-0.604404,5.370275
1.925,-6.029719,-0.614612,5.333653
1.945,-6.100056,-0.62334,5.30011
1.965,-6.172562,-0.627962,5.272997
1.985,-6.23999,-0.630551,5.247264
2.005,-6.300429,-0.63341,5.219923
2.025,-6.36804,-0.637329,5.192481
2.045,-6.431431,-0.640326,5.16718
2.065,-6.482903,-0.643118,5.145083
2.085,-6.534164,-0.645485,5.125492
2.105,-6.582483,-0.646868,5.107221
2.125,-6.6219,-0.649004,5.08998
2.145,-6.657342,-0.65224,5.073244
2.165,-6.696166,-0.655247,5.056276
2.185,-6.736729,-0.657086,5.036397
2.297,-6.761168,-0.655867,5.019595
2.317,-6.7897,-0.653037,5.002925
2.337,-6.810147,-0.648175,4.98827
2.357,-6.822826,-0.643501,4.974472
2.377,-6.834716,-0.641447,4.957145
2.397,-6.843789,-0.641019,4.935002
2.417,-6.84789,-0.639521,4.913947
2.437,-6.847995,-0.636484,4.895459
2.457,-6.848324,-0.632368,4.876304
2.477,-6.839546,-0.627365,4.850873
2.497,-6.822052,-0.623635,4.821001
2.517,-6.805535,-0.621174,4.789031
2.537,-6.793345,-0.619787,4.757124
2.557,-6.781359,-0.619524,4.721973
2.577,-6.762006,-0.618738,4.683103
2.597,-6.735067,-0.615878,4.64289
2.617,-6.703765,-0.611544,4.600414
2.637,-6.664762,-0.607569,4.550813
2.657,-6.615295,-0.606706,4.491964
2.677,-6.556612,-0.610923,4.430136
2.697,-6.48858,-0.619017,4.364797
2.717,-6.41435,-0.624271,4.290835
2.737,-6.335824,-0.618713,4.207532
2.757,-6.252749,-0.6012,4.10664
2.777,-6.159405,-0.578231,3.985121
2.797,-6.052445,-0.565438,3.84035
2.817,-5.931445,-0.573895,3.650273
2.837,-5.795743,-0.583434,3.369911
2.857,-5.65515,-0.587163,3.043118
2.877,-5.494574,-0.590802,2.748769
2.897,-5.396937,-0.589485,2.514862
2.917,-5.343064,-0.575329,2.36547
2.937,-5.124408,-0.548195,2.344651
2.957,-4.655519,-0.497586,2.502339
2.977,-4.010306,-0.413633,2.845523
2.997,-3.300497,-0.349448,2.986444
3.017,-2.024777,-0.336983,3.064234
3.037,0.459163,-0.335075,3.485677
3.057,4.389989,-0.304289,3.872921
3.077,7.733746,-0.200954,4.121561
3.097,19.9931,0.899609,6.517298
3.117,-13.28136,0.444856,10.41755
3.137,-20.71146,-0.503584,4.962714
3.157,-7.921835,-1.361329,10.7154
3.177,-0.855345,-2.787224,9.374231
3.197,-5.102966,-0.37154,8.715996
3.217,-0.587777,4.155684,8.647398
3.237,0.144279,4.165055,8.337621
3.257,1.330692,1.477404,8.776269
3.277,1.178858,-1.040905,9.307437
3.297,1.122759,-1.308301,9.60484
3.317,0.955779,0.381906,9.837074
3.337,0.847436,1.730495,9.779091
3.357,0.815859,1.841486,9.742781
3.377,0.811603,1.393619,9.701612
3.397,0.867381,1.009346,9.583898
3.417,0.891427,1.731753,9.405512
3.437,0.732315,3.181792,9.230234
3.457,0.576369,4.206232,8.945766
3.477,0.349373,4.483842,8.670622
3.497,0.288597,5.047098,8.597003
3.517,0.317767,5.652529,8.591167
3.537,0.305807,5.935853,8.546828
3.557,0.286037,6.070227,8.523123
3.577,0.273918,6.11723,8.526021
3.597,0.247489,6.034436,8.536625
3.617,0.222351,5.912183,8.549771
3.637,0.196636,5.925095,8.560993
3.657,0.169644,6.042459,8.553708
3.677,0.138588,6.15216,8.541807
3.697,0.132361,6.194338,8.540098
3.717,0.138136,6.13787,8.543997
3.737,0.135093,6.070535,8.557625
3.757,0.128151,6.013198,8.571961
3.777,0.111396,5.966441,8.588284
3.797,0.09683,5.914854,8.605687
3.817,0.092315,5.870324,8.61673
3.837,0.087225,5.842743,8.623336
3.857,0.089256,5.834819,8.629246
3.877,0.090273,5.825149,8.630533
3.897,0.087848,5.820161,8.629424
3.917,0.082209,5.824689,8.626122
3.937,0.076131,5.839649,8.618672
3.957,0.068322,5.872107,8.608686
3.977,0.060655,5.918942,8.596401
3.997,0.054886,5.966824,8.580599
4.017,0.051375,6.014267,8.565138
4.037,0.046471,6.053812,8.548264
4.057,0.039034,6.090894,8.52905
4.077,0.030549,6.129248,8.511303
4.097,0.023112,6.163381,8.494039
4.117,0.017213,6.192376,8.478292
4.137,0.012487,6.215549,8.462775
4.157,0.009661,6.232781,8.449749
4.177,0.007006,6.246459,8.437705
4.197,0.004766,6.262313,8.42696
4.217,0.001269,6.279288,8.416985
4.237,-0.002287,6.295204,8.406372
4.257,-0.005851,6.309375,8.3957
4.277,-0.009563,6.322341,8.385949
4.499,-0.012767,6.336648,8.37558
4.519,-0.015535,6.351335,8.365141
4.539,-0.018831,6.366559,8.35529
4.559,-0.021085,6.379557,8.345633
4.579,-0.023391,6.389832,8.336658
4.599,-0.024893,6.40012,8.327799
4.619,-0.027223,6.413068,8.31927
4.639,-0.029889,6.425198,8.310226
4.659,-0.032184,6.435559,8.302284
4.679,-0.034606,6.446244,8.294376
4.699,-0.036439,6.456784,8.286206
4.719,-0.038448,6.466292,8.27799
4.739,-0.040012,6.475455,8.270591
4.759,-0.041304,6.484049,8.263206
4.779,-0.042519,6.491913,8.256677
4.799,-0.044173,6.499547,8.250534
4.819,-0.045923,6.507563,8.243828
4.839,-0.047553,6.514538,8.237656
4.859,-0.04875,6.520832,8.231466
4.879,-0.049949,6.52762,8.225748
4.899,-0.051011,6.533927,8.220037
4.919,-0.052483,6.540117,8.214371
4.939,-0.053683,6.546405,8.209291
4.959,-0.055441,6.553203,8.204381
4.979,-0.056441,6.559181,8.199531
4.999,-0.057415,6.564452,8.194631
5.019,-0.058332,6.569405,8.190099
5.039,-0.058976,6.574642,8.185615
5.059,-0.060529,6.579144,8.180735
5.079,-0.06177,6.584702,8.17631
5.099,-0.06292,6.589914,8.171794
5.119,-0.063865,6.594195,8.167454
5.139,-0.065022,6.598763,8.163185
5.159,-0.066007,6.603314,8.159114
5.179,-0.067084,6.609003,8.154788
5.199,-0.067738,6.613297,8.151098
5.219,-0.068489,6.616351,8.146839
5.239,-0.06953,6.620157,8.143387
5.259,-0.070658,6.624345,8.140075
5.279,-0.071761,6.628833,8.136565
5.299,-0.072652,6.633411,8.132744
5.319,-0.073256,6.63728,8.129213
5.339,-0.073742,6.640131,8.125877
5.359,-0.074531,6.643205,8.122818
5.379,-0.075252,6.647102,8.119651
5.399,-0.075984,6.651098,8.116351
5.419,-0.076751,6.654938,8.113149
5.439,-0.077377,6.658502,8.109788
5.459,-0.077767,6.661336,8.106774
5.479,-0.078272,6.663556,8.103684
5.499,-0.078865,6.666447,8.100794
5.519,-0.079591,6.669662,8.098178
5.539,-0.080327,6.672627,8.095749
5.559,-0.080769,6.675439,8.093129
5.579,-0.081374,6.678335,8.090429
5.599,-0.081924,6.680709,8.08765
5.619,-0.082542,6.683799,8.084899
5.639,-0.083273,6.686796,8.0822
5.659,-0.083781,6.68906,8.079552
5.679,-0.084188,6.691442,8.077181
5.699,-0.084711,6.694268,8.074929
5.719,-0.08518,6.696738,8.072545
5.739,-0.085957,6.699293,8.070107
5.759,-0.086629,6.701903,8.067859
5.779,-0.087176,6.704171,8.065506
5.799,-0.087788,6.706341,8.063388
5.819,-0.088371,6.708703,8.060805
5.839,-0.088684,6.710683,8.058823
5.859,-0.08909,6.712421,8.056621
5.879,-0.089875,6.714556,8.054512
5.899,-0.090557,6.71695,8.052377
5.919,-0.091351,6.7195,8.050406
5.939,-0.091898,6.721781,8.048145
5.959,-0.092272,6.724045,8.045955
5.979,-0.092857,6.726026,8.043714
5.999,-0.093294,6.727946,8.041471
6.019,-0.09363,6.729883,8.039323
6.039,-0.09401,6.731944,8.037315
6.059,-0.094219,6.73432,8.03552
6.079,-0.094426,6.736624,8.033574
6.099,-0.094751,6.738546,8.031625
6.119,-0.095096,6.740161,8.029839
6.139,-0.095151,6.742096,8.028118
6.159,-0.095349,6.744514,8.026175
6.179,-0.095592,6.747075,8.02406
6.199,-0.095785,6.749372,8.022086
6.219,-0.095977,6.751358,8.020419
6.239,-0.095879,6.753228,8.018529
6.259,-0.095758,6.755463,8.016586
6.279,-0.095878,6.757915,8.014663
6.299,-0.096643,6.760629,8.013094
6.319,-0.097041,6.762527,8.011589
6.339,-0.096622,6.765219,8.009907
6.359,-0.096134,6.768172,8.008313
6.379,-0.096202,6.769587,8.006473
6.399,-0.097898,6.772233,8.005368
6.419,-0.098858,6.777079,8.004659
6.439,-0.098803,6.783743,8.004027
6.459,-0.097959,6.790653,8.003379
6.479,-0.096931,6.798858,8.003623
6.624,-0.110256,6.792209,8.008533
6.644,-0.123901,6.784836,8.021199
6.664,-0.130898,6.775526,8.040777
6.684,-0.144697,6.760658,8.063655
6.704,-0.162116,6.73653,8.08585
6.724,-0.17328,6.705916,8.105309
6.744,-0.184165,6.661841,8.122035
6.764,-0.193743,6.598503,8.137229
6.784,-0.197384,6.527346,8.147411
6.804,-0.196775,6.454198,8.154881
6.824,-0.19203,6.381492,8.164599
6.844,-0.179911,6.305893,8.174005
6.864,-0.165518,6.22614,8.175511
6.884,-0.140855,6.141312,8.18476
6.904,-0.081171,6.105993,8.256213
6.924,-0.041693,6.138553,8.302866
6.944,-0.021596,6.129962,8.317425
6.964,-0.001771,6.069568,8.339116
6.984,0.007751,5.97229,8.364182
7.004,0.016173,5.852788,8.38935
7.024,0.01649,5.729655,8.418051
7.044,0.016325,5.620368,8.443849
7.064,0.015157,5.532372,8.467441
7.084,0.013425,5.459357,8.493947
7.104,0.013243,5.384426,8.52167
7.124,0.013972,5.293926,8.547324
7.144,0.015485,5.187104,8.571493
7.164,0.015904,5.076131,8.596274
7.184,0.014931,4.974374,8.622763
7.204,0.018804,4.889798,8.648755
7.224,0.019215,4.803938,8.673815
7.244,0.016628,4.715873,8.699855
7.264,0.017228,4.62499,8.728591
7.284,0.017295,4.525551,8.753222
7.304,0.015782,4.419353,8.776964
7.324,0.013661,4.305048,8.801952
7.344,0.013069,4.21782,8.827332
7.364,0.01325,4.144948,8.853379
7.384,0.01362,4.081537,8.879299
7.404,0.014585,4.016292,8.907043
7.424,0.015636,3.930811,8.931581
7.444,0.013804,3.827529,8.95333
7.464,0.014145,3.734859,8.977653
7.484,0.014865,3.666806,9.004881
7.504,0.015986,3.608947,9.0301
7.524,0.015802,3.540318,9.053611
7.544,0.015452,3.46544,9.077046
7.564,0.015992,3.40104,9.102536
7.584,0.017508,3.345603,9.127337
7.604,0.017357,3.287081,9.149666
7.624,0.016896,3.224972,9.172357
7.644,0.017014,3.163608,9.196213
7.664,0.016461,3.106998,9.219565
7.684,0.015866,3.051131,9.240922
7.704,0.016641,3.002318,9.263371
7.724,0.017623,2.958071,9.286716
7.744,0.018237,2.910364,9.308686
7.764,0.016547,2.8571,9.329813
7.784,0.016237,2.80792,9.350328
7.804,0.016099,2.763373,9.371664
7.824,0.015842,2.721788,9.392591
7.844,0.015133,2.680045,9.413072
7.864,0.015126,2.636296,9.431527
7.884,0.014471,2.598608,9.452068
7.904,0.014423,2.562233,9.471304
7.924,0.014949,2.525988,9.490397
7.944,0.014919,2.490155,9.50983
7.964,0.014626,2.456643,9.528263
7.984,0.013977,2.424509,9.546659
8.004,0.014077,2.392611,9.565392
8.024,0.013433,2.363377,9.583644
8.044,0.013179,2.333175,9.600902
8.064,0.011683,2.30364,9.617954
8.084,0.011997,2.278658,9.63562
8.104,0.01451,2.25448,9.650429
8.124,0.012785,2.22687,9.66708
8.144,0.009976,2.199392,9.682653
8.164,0.010953,2.177955,9.699248
8.184,0.011107,2.15703,9.715412
8.204,0.011092,2.134531,9.730979
8.224,0.012226,2.109941,9.745652
8.244,0.012008,2.089942,9.760377
8.264,0.01038,2.072036,9.774886
8.284,0.010204,2.053872,9.789781
8.304,0.009647,2.03443,9.804727
8.324,0.009574,2.01858,9.818998
8.344,0.009838,2.002138,9.8328
8.364,0.010577,1.984222,9.845643
8.384,0.010448,1.965437,9.859241
8.404,0.009386,1.946081,9.871924
8.424,0.008286,1.929288,9.885457
8.444,0.007964,1.91489,9.89789
8.464,0.009033,1.900652,9.910815
8.484,0.009733,1.887099,9.923329
8.504,0.009588,1.8728,9.935277
8.524,0.009109,1.857515,9.946889
8.544,0.0083,1.841572,9.958202
8.564,0.00836,1.828573,9.968968
8.584,0.00866,1.81653,9.980077
8.604,0.008789,1.805033,9.991524
