accel_time_list,accel_x_list,accel_y_list,accel_z_list
0.025000,-8.980651,-2.238579,3.651158
0.045000,-8.823831,-2.561796,3.568558
0.065000,-8.889011,-2.573018,3.468289
0.085000,-9.037473,-2.496918,3.379655
0.105000,-9.132625,-2.232200,3.375997
0.125000,-9.101396,-2.016351,3.365545
0.145000,-9.117833,-1.873527,3.316859
0.165000,-8.962376,-1.709463,3.311925
0.185000,-8.859379,-1.584676,3.320143
0.205000,-8.840357,-1.482981,3.318276
0.225000,-8.838703,-1.414903,3.316314
0.245000,-8.811787,-1.348022,3.295214
0.265000,-8.786015,-1.277514,3.261560
0.285000,-8.777463,-1.201495,3.231247
0.305000,-8.776622,-1.121239,3.212363
0.325000,-8.777575,-1.047660,3.196435
0.345000,-8.774235,-0.988596,3.175927
0.365000,-8.765289,-0.949283,3.151163
0.385000,-8.761546,-0.935083,3.130122
0.405000,-8.770909,-0.940863,3.114477
0.425000,-8.781592,-0.955440,3.100083
0.445000,-8.786288,-0.970388,3.087555
0.465000,-8.789398,-0.981273,3.078693
0.485000,-8.796125,-0.983983,3.073456
0.505000,-8.808884,-0.979445,3.065287
0.525000,-8.821240,-0.972010,3.053475
0.545000,-8.823573,-0.965915,3.039507
0.565000,-8.817824,-0.963673,3.022448
0.585000,-8.820457,-0.967342,2.999152
0.605000,-8.831530,-0.969728,2.969322
0.625000,-8.840149,-0.965768,2.934513
0.645000,-8.842596,-0.960630,2.895456
0.665000,-8.846314,-0.958138,2.855898
0.685000,-8.854609,-0.956849,2.811423
0.705000,-8.857131,-0.954110,2.761065
0.725000,-8.856759,-0.951814,2.710753
0.745000,-8.857010,-0.947793,2.662867
0.765000,-8.854905,-0.934231,2.613978
0.785000,-8.849742,-0.907881,2.555716
0.805000,-8.844835,-0.872986,2.492758
0.825000,-8.843067,-0.830909,2.429165
0.845000,-8.844569,-0.784119,2.362839
0.865000,-8.839838,-0.736512,2.293796
0.885000,-8.827039,-0.696390,2.228816
0.905000,-8.810943,-0.663749,2.168950
0.925000,-8.787893,-0.632632,2.104054
0.945000,-8.753425,-0.600221,2.037306
0.965000,-8.714109,-0.565425,1.967075
0.985000,-8.682524,-0.527659,1.900824
1.005000,-8.657790,-0.486870,1.837989
1.025000,-8.627674,-0.443974,1.771657
1.045000,-8.588088,-0.398649,1.693238
1.065000,-8.552196,-0.350741,1.606091
1.085000,-8.530291,-0.304146,1.512444
1.105000,-8.519004,-0.258281,1.414830
1.125000,-8.512105,-0.209727,1.313531
1.145000,-8.510608,-0.154749,1.209684
1.165000,-8.519152,-0.096331,1.114026
1.185000,-8.523337,-0.037407,1.031578
1.205000,-8.507405,0.016359,0.955561
1.225000,-8.476110,0.062352,0.879372
1.245000,-8.443035,0.100205,0.806621
1.265000,-8.411974,0.136391,0.745777
1.285000,-8.380610,0.175957,0.689059
1.305000,-8.345817,0.219579,0.633985
1.325000,-8.306671,0.271791,0.575594
1.345000,-8.266927,0.330706,0.522367
1.365000,-8.236068,0.386039,0.473421
1.385000,-8.214187,0.431729,0.422097
1.405000,-8.195360,0.480155,0.372706
1.425000,-8.174923,0.542112,0.322802
1.445000,-8.152458,0.614003,0.269429
1.465000,-8.131585,0.673010,0.209836
1.485000,-8.119784,0.709470,0.153560
1.505000,-8.112647,0.729670,0.115485
1.525000,-8.109769,0.748825,0.072432
1.545000,-8.116236,0.774903,0.007772
1.565000,-8.117456,0.799831,-0.045330
1.585000,-8.109793,0.813972,-0.076819
1.605000,-8.100193,0.818314,-0.113835
1.625000,-8.084084,0.823306,-0.139547
1.645000,-8.044593,0.830642,-0.173060
1.665000,-7.954830,0.829145,-0.255688
1.685000,-7.803604,0.819618,-0.359590
1.705000,-7.599533,0.804543,-0.470064
1.725000,-7.300798,0.782421,-0.650586
1.745000,-6.770175,0.747255,-0.898277
1.765000,-5.829538,0.588884,-1.162142
1.785000,-4.496387,0.221782,-2.087571
1.805000,-9.748489,-0.226079,1.439827
1.825000,-24.990417,-0.423923,5.228929
1.845000,-26.190563,-0.438081,-2.872856
1.865000,-12.863872,0.268609,-7.599209
1.885000,11.558637,0.834296,0.940094
1.905000,4.672246,0.284987,11.236906
1.925000,-4.986242,-0.983095,8.384524
1.945000,-11.609249,-2.546910,4.683020
1.965000,-9.692000,-2.642541,3.890088
1.985000,-7.535957,-1.685764,5.398121
2.005000,-6.750114,-0.949376,6.563596
2.151000,-8.005440,-1.319458,6.016708
2.171000,-7.406050,-1.784962,5.199526
2.191000,-5.909575,-2.127738,4.817266
2.211000,-5.077099,-2.228921,4.901040
2.231000,-4.762513,-1.819118,6.184859
2.251000,-4.264343,-1.046972,7.679833
2.271000,-3.376550,-0.531364,8.223106
2.291000,-2.220893,-0.329635,8.311988
2.311000,-1.042784,-0.268421,8.602134
2.331000,0.139345,-0.260287,8.934397
2.351000,0.384675,-0.370928,9.356927
2.371000,0.402170,-0.486570,9.572992
2.391000,0.651714,-0.761217,9.528135
2.411000,0.692689,-1.074676,9.430873
2.431000,0.224675,-1.282610,9.533798
2.451000,-0.255567,-1.422793,9.675445
2.471000,-0.477863,-1.496183,9.673844
2.491000,-0.533371,-1.416240,9.632826
2.511000,-0.575293,-1.263020,9.715573
2.531000,-0.674305,-1.177696,9.844057
2.551000,-0.700517,-1.262892,9.880325
2.571000,-0.690361,-1.412770,9.902416
2.591000,-0.758648,-1.530631,9.936734
2.611000,-0.786480,-1.587922,9.939649
2.631000,-0.747370,-1.620395,9.937745
2.651000,-0.772588,-1.654759,9.984792
2.671000,-0.835756,-1.702566,10.030111
2.691000,-0.866102,-1.759562,10.032713
2.711000,-0.870835,-1.823910,9.989801
2.731000,-0.898530,-1.896929,9.983002
2.751000,-0.938950,-1.946526,10.013243
2.771000,-0.949675,-1.974811,10.027950
2.791000,-0.924836,-1.996127,10.030571
2.811000,-0.885213,-2.024249,10.051087
2.831000,-0.858004,-2.065785,10.092825
2.851000,-0.842532,-2.112284,10.118248
2.871000,-0.830854,-2.154567,10.115990
2.891000,-0.819198,-2.189875,10.106162
2.911000,-0.815697,-2.216744,10.110826
2.931000,-0.817524,-2.233654,10.124868
2.951000,-0.817199,-2.240309,10.138929
2.971000,-0.812718,-2.240469,10.149462
2.991000,-0.804908,-2.242328,10.158955
3.011000,-0.798521,-2.251463,10.171372
3.031000,-0.792273,-2.271099,10.181000
3.051000,-0.784940,-2.293906,10.187413
3.071000,-0.776784,-2.313720,10.189940
3.091000,-0.766703,-2.327820,10.190510
3.111000,-0.759471,-2.336893,10.199022
3.131000,-0.757357,-2.343489,10.209541
3.151000,-0.750666,-2.348805,10.215526
3.171000,-0.742816,-2.354221,10.220306
3.191000,-0.739516,-2.364040,10.226449
3.211000,-0.735983,-2.376277,10.232092
3.231000,-0.729291,-2.389316,10.235762
3.251000,-0.721578,-2.403276,10.238600
3.271000,-0.715684,-2.416310,10.243111
3.291000,-0.712455,-2.428411,10.248401
3.311000,-0.707156,-2.440225,10.251776
3.331000,-0.700858,-2.450039,10.254753
3.351000,-0.697334,-2.457460,10.259512
3.371000,-0.693755,-2.464086,10.262514
3.391000,-0.689896,-2.472025,10.265368
3.411000,-0.686039,-2.480431,10.269580
3.431000,-0.680643,-2.489510,10.272895
3.451000,-0.676510,-2.497437,10.276267
3.471000,-0.672857,-2.505193,10.278672
3.491000,-0.669746,-2.513223,10.281885
3.511000,-0.667150,-2.519619,10.285275
3.531000,-0.663172,-2.524364,10.287858
3.551000,-0.657472,-2.529375,10.288744
3.571000,-0.652812,-2.536457,10.290892
3.591000,-0.650519,-2.544101,10.294845
3.611000,-0.647257,-2.550396,10.297062
3.631000,-0.643599,-2.555870,10.298706
3.651000,-0.642069,-2.561378,10.301379
3.671000,-0.639958,-2.566262,10.304687
3.691000,-0.637981,-2.569439,10.309618
3.711000,-0.638431,-2.570525,10.315462
3.731000,-0.635894,-2.572097,10.317499
3.751000,-0.628152,-2.576185,10.315797
3.771000,-0.621042,-2.584352,10.315007
3.791000,-0.616432,-2.595506,10.316347
3.811000,-0.611464,-2.605206,10.316741
3.831000,-0.606550,-2.611547,10.316804
3.851000,-0.602785,-2.615881,10.317625
3.871000,-0.600000,-2.619551,10.319613
3.891000,-0.597577,-2.622786,10.321553
3.911000,-0.594124,-2.626947,10.322957
3.931000,-0.590785,-2.633303,10.324267
3.951000,-0.587651,-2.641264,10.325277
3.971000,-0.584125,-2.647513,10.326027
3.991000,-0.580710,-2.650766,10.327168
4.011000,-0.578043,-2.653040,10.329955
4.031000,-0.576222,-2.655893,10.331539
4.051000,-0.573042,-2.659430,10.331843
4.071000,-0.570553,-2.663506,10.332477
4.091000,-0.568411,-2.667766,10.334202
4.111000,-0.565768,-2.670988,10.336164
4.131000,-0.563039,-2.673323,10.337487
4.232000,-0.561021,-2.676678,10.339051
4.252000,-0.558570,-2.680373,10.340849
4.272000,-0.556198,-2.683959,10.341899
4.292000,-0.553380,-2.687615,10.342484
4.312000,-0.551493,-2.690848,10.343391
4.332000,-0.550051,-2.692902,10.344306
4.352000,-0.547595,-2.694657,10.345455
4.372000,-0.545693,-2.697268,10.346457
4.392000,-0.544434,-2.700377,10.347786
4.412000,-0.542706,-2.703450,10.348475
4.432000,-0.541038,-2.705511,10.349588
4.452000,-0.539148,-2.707852,10.350680
4.472000,-0.537319,-2.711107,10.351896
4.492000,-0.535727,-2.713187,10.353244
4.512000,-0.534265,-2.714597,10.354410
4.532000,-0.532634,-2.716575,10.355373
4.552000,-0.530715,-2.719415,10.356039
4.572000,-0.529317,-2.722509,10.356961
4.592000,-0.528114,-2.724329,10.358210
4.612000,-0.526519,-2.725261,10.358943
4.632000,-0.525133,-2.726896,10.359573
4.652000,-0.523736,-2.729166,10.360460
4.672000,-0.522377,-2.730440,10.361362
4.692000,-0.520961,-2.731399,10.362136
4.712000,-0.519582,-2.733300,10.362997
4.732000,-0.518360,-2.736398,10.363802
4.752000,-0.517438,-2.738554,10.364479
4.772000,-0.516190,-2.739660,10.365197
4.792000,-0.515147,-2.740634,10.366028
4.812000,-0.513778,-2.742054,10.366994
4.832000,-0.512231,-2.743987,10.367903
4.852000,-0.511083,-2.745373,10.369162
4.872000,-0.510043,-2.746578,10.369378
4.892000,-0.508486,-2.747843,10.370215
4.912000,-0.507327,-2.749382,10.371523
4.932000,-0.506109,-2.751409,10.373009
4.952000,-0.504998,-2.753511,10.373522
4.972000,-0.503659,-2.755161,10.373671
4.992000,-0.502238,-2.756483,10.374537
5.012000,-0.500567,-2.758104,10.374915
5.032000,-0.498650,-2.759660,10.376103
5.052000,-0.498117,-2.760363,10.377136
5.072000,-0.496847,-2.760939,10.377369
5.092000,-0.495350,-2.762826,10.376929
5.112000,-0.494299,-2.765892,10.377451
5.132000,-0.493019,-2.768471,10.378470
5.152000,-0.491968,-2.769685,10.379528
5.172000,-0.492148,-2.770216,10.380455
5.192000,-0.492445,-2.770262,10.381014
5.212000,-0.492645,-2.769782,10.382046
5.232000,-0.492937,-2.770024,10.383451
5.252000,-0.491719,-2.771174,10.383476
5.272000,-0.489029,-2.774323,10.382855
5.292000,-0.485335,-2.779979,10.383223
5.312000,-0.482613,-2.785578,10.384711
5.332000,-0.482120,-2.787052,10.385706
5.352000,-0.481609,-2.782716,10.386499
5.372000,-0.481772,-2.775360,10.389056
5.392000,-0.483060,-2.768843,10.391636
5.412000,-0.481868,-2.766868,10.391844
5.432000,-0.479348,-2.770133,10.391594
5.452000,-0.476877,-2.775591,10.393095
5.472000,-0.475771,-2.779893,10.394820
5.492000,-0.475084,-2.780729,10.395187
5.512000,-0.474547,-2.780264,10.394953
5.532000,-0.474231,-2.781168,10.395678
5.552000,-0.474277,-2.783140,10.397114
5.572000,-0.473724,-2.784134,10.397913
5.592000,-0.472698,-2.783156,10.399063
5.612000,-0.468545,-2.746179,10.390266
5.632000,-0.464410,-2.744431,10.400423
5.652000,-0.479566,-2.771239,10.401237
5.672000,-0.470294,-2.802879,10.397709
5.692000,-0.472917,-2.832359,10.392708
5.712000,-0.467206,-2.844736,10.387685
5.732000,-0.468879,-2.842146,10.384819
5.752000,-0.467542,-2.832424,10.384975
5.772000,-0.461526,-2.837810,10.388937
5.792000,-0.463973,-2.843765,10.388597
5.812000,-0.457370,-2.853203,10.386393
5.832000,-0.457034,-2.863218,10.384402
5.852000,-0.456893,-2.868583,10.386119
5.872000,-0.456347,-2.873464,10.386406
5.892000,-0.456787,-2.866588,10.385612
5.912000,-0.455810,-2.856765,10.386144
5.932000,-0.458818,-2.845220,10.386190
5.952000,-0.452291,-2.846982,10.389517
5.972000,-0.452748,-2.851888,10.390104
5.992000,-0.450279,-2.858300,10.390231
6.012000,-0.446064,-2.868049,10.387436
6.032000,-0.450581,-2.866135,10.387757
6.052000,-0.448158,-2.861248,10.389512
6.072000,-0.445065,-2.857943,10.391464
6.092000,-0.451676,-2.854694,10.393541
6.112000,-0.449434,-2.852890,10.393203
6.132000,-0.453175,-2.854744,10.393873
6.152000,-0.446513,-2.855549,10.395494
6.172000,-0.453037,-2.857376,10.397243
6.192000,-0.451188,-2.858443,10.397203
6.212000,-0.450076,-2.858134,10.395656
