gyro_time_list,gyro_x_list,gyro_y_list,gyro_z_list
0.011000,-0.026000,0.244000,0.303000
0.031000,-0.068000,0.318000,0.326000
0.051000,-0.091000,0.411000,0.348000
0.071000,-0.127000,0.487000,0.444000
0.091000,-0.201000,0.567000,0.528000
0.111000,-0.287000,0.678000,0.628000
0.131000,-0.378000,0.791000,0.729000
0.151000,-0.488000,0.890000,0.824000
0.171000,-0.604000,0.977000,0.924000
0.191000,-0.714000,1.060000,1.029000
0.211000,-0.801000,1.136000,1.138000
0.231000,-0.842000,1.201000,1.246000
0.251000,-0.853000,1.251000,1.357000
0.271000,-0.859000,1.294000,1.465000
0.291000,-0.879000,1.334000,1.567000
0.311000,-0.930000,1.365000,1.658000
0.331000,-1.006000,1.384000,1.734000
0.351000,-1.084000,1.394000,1.799000
0.371000,-1.159000,1.397000,1.856000
0.391000,-1.226000,1.389000,1.906000
0.411000,-1.257000,1.376000,1.949000
0.431000,-1.259000,1.359000,1.986000
0.451000,-1.265000,1.333000,2.009000
0.471000,-1.286000,1.298000,2.015000
0.491000,-1.307000,1.255000,2.010000
0.511000,-1.318000,1.205000,1.993000
0.531000,-1.325000,1.147000,1.966000
0.551000,-1.328000,1.082000,1.931000
0.571000,-1.323000,1.014000,1.890000
0.591000,-1.312000,0.943000,1.845000
0.611000,-1.298000,0.870000,1.797000
0.631000,-1.282000,0.797000,1.746000
0.651000,-1.260000,0.727000,1.694000
0.671000,-1.235000,0.660000,1.641000
0.691000,-1.212000,0.594000,1.587000
0.711000,-1.192000,0.529000,1.533000
0.731000,-1.172000,0.470000,1.479000
0.751000,-1.151000,0.413000,1.426000
0.771000,-1.127000,0.357000,1.374000
0.791000,-1.102000,0.304000,1.322000
0.811000,-1.076000,0.252000,1.270000
0.831000,-1.050000,0.202000,1.218000
0.851000,-1.025000,0.154000,1.166000
0.871000,-1.002000,0.105000,1.113000
0.891000,-0.981000,0.056000,1.060000
0.911000,-0.961000,0.005000,1.005000
0.931000,-0.940000,-0.046000,0.949000
0.951000,-0.918000,-0.096000,0.892000
0.971000,-0.896000,-0.143000,0.836000
0.991000,-0.872000,-0.191000,0.780000
1.011000,-0.849000,-0.242000,0.725000
1.031000,-0.826000,-0.295000,0.669000
1.051000,-0.805000,-0.347000,0.612000
1.071000,-0.784000,-0.396000,0.555000
1.091000,-0.763000,-0.443000,0.498000
1.111000,-0.738000,-0.486000,0.443000
1.131000,-0.711000,-0.525000,0.390000
1.151000,-0.682000,-0.559000,0.339000
1.171000,-0.653000,-0.590000,0.291000
1.191000,-0.624000,-0.618000,0.245000
1.211000,-0.599000,-0.639000,0.201000
1.231000,-0.576000,-0.657000,0.158000
1.251000,-0.561000,-0.675000,0.118000
1.271000,-0.563000,-0.694000,0.072000
1.291000,-0.576000,-0.729000,0.025000
1.311000,-0.588000,-0.771000,-0.028000
1.331000,-0.592000,-0.810000,-0.098000
1.351000,-0.561000,-0.832000,-0.186000
1.371000,-0.516000,-0.788000,-0.265000
1.391000,-0.552000,-0.669000,-0.300000
1.411000,-0.595000,-0.623000,-0.221000
1.431000,-0.542000,-0.728000,-0.112000
1.451000,-0.620000,-0.873000,-0.117000
1.471000,-0.665000,-1.024000,-0.275000
1.491000,-0.587000,-1.091000,-0.289000
1.511000,-0.476000,-1.053000,-0.137000
1.531000,-0.479000,-1.095000,0.016000
1.551000,-0.603000,-1.147000,0.146000
1.571000,-0.728000,-1.136000,0.254000
1.591000,-0.691000,-1.049000,0.273000
1.611000,-0.563000,-0.920000,0.271000
1.631000,-0.445000,-0.786000,0.247000
1.651000,-0.371000,-0.673000,0.200000
1.671000,-0.304000,-0.604000,0.148000
1.691000,-0.219000,-0.563000,0.103000
1.711000,-0.153000,-0.527000,0.054000
1.731000,-0.133000,-0.483000,0.005000
1.751000,-0.160000,-0.424000,-0.054000
1.771000,-0.202000,-0.344000,-0.120000
1.791000,-0.244000,-0.239000,-0.186000
1.811000,-0.266000,-0.111000,-0.244000
1.831000,-0.217000,0.041000,-0.278000
1.851000,-0.039000,0.174000,-0.222000
1.871000,0.137000,0.238000,-0.165000
1.891000,0.050000,0.201000,-0.121000
1.911000,-0.171000,0.130000,-0.139000
1.931000,-0.404000,0.054000,-0.179000
1.951000,-0.643000,0.006000,-0.212000
1.971000,-0.647000,0.000000,-0.218000
1.991000,-0.465000,0.002000,-0.186000
2.011000,-0.236000,-0.002000,-0.166000
2.031000,-0.076000,0.001000,-0.152000
2.051000,-0.062000,0.009000,-0.154000
2.071000,-0.176000,0.016000,-0.162000
2.091000,-0.359000,0.019000,-0.173000
2.111000,-0.561000,0.019000,-0.182000
2.131000,-0.732000,0.018000,-0.187000
2.151000,-0.853000,0.014000,-0.187000
2.171000,-0.848000,0.008000,-0.182000
2.191000,-0.718000,0.008000,-0.173000
2.211000,-0.528000,0.012000,-0.163000
2.231000,-0.364000,0.016000,-0.158000
2.251000,-0.260000,0.019000,-0.155000
2.271000,-0.213000,0.020000,-0.154000
2.291000,-0.210000,0.021000,-0.155000
2.311000,-0.238000,0.023000,-0.154000
2.331000,-0.291000,0.027000,-0.154000
2.351000,-0.351000,0.030000,-0.152000
2.371000,-0.379000,0.032000,-0.149000
2.391000,-0.367000,0.034000,-0.145000
2.411000,-0.336000,0.035000,-0.141000
2.431000,-0.312000,0.036000,-0.138000
2.451000,-0.304000,0.037000,-0.136000
2.471000,-0.306000,0.038000,-0.136000
2.491000,-0.317000,0.040000,-0.135000
2.511000,-0.336000,0.041000,-0.133000
2.531000,-0.356000,0.042000,-0.131000
2.551000,-0.357000,0.042000,-0.126000
2.571000,-0.341000,0.043000,-0.120000
2.591000,-0.328000,0.044000,-0.115000
2.611000,-0.325000,0.043000,-0.112000
2.631000,-0.319000,0.043000,-0.108000
2.651000,-0.302000,0.042000,-0.103000
2.671000,-0.282000,0.042000,-0.099000
2.691000,-0.265000,0.042000,-0.094000
2.711000,-0.259000,0.043000,-0.090000
2.731000,-0.262000,0.043000,-0.088000
2.751000,-0.268000,0.043000,-0.085000
2.771000,-0.260000,0.043000,-0.082000
2.791000,-0.238000,0.042000,-0.080000
2.811000,-0.211000,0.042000,-0.078000
2.831000,-0.189000,0.042000,-0.076000
2.851000,-0.177000,0.042000,-0.076000
2.871000,-0.176000,0.042000,-0.075000
2.891000,-0.182000,0.042000,-0.075000
2.911000,-0.190000,0.042000,-0.074000
2.931000,-0.196000,0.041000,-0.074000
2.951000,-0.199000,0.041000,-0.073000
2.971000,-0.200000,0.041000,-0.072000
2.991000,-0.197000,0.041000,-0.070000
3.011000,-0.189000,0.041000,-0.069000
3.031000,-0.179000,0.040000,-0.068000
3.051000,-0.170000,0.040000,-0.067000
3.071000,-0.165000,0.041000,-0.066000
3.091000,-0.163000,0.040000,-0.065000
3.111000,-0.159000,0.040000,-0.064000
3.131000,-0.155000,0.040000,-0.064000
3.151000,-0.152000,0.039000,-0.063000
3.171000,-0.150000,0.039000,-0.062000
3.191000,-0.148000,0.039000,-0.062000
3.211000,-0.148000,0.039000,-0.061000
3.231000,-0.148000,0.039000,-0.061000
3.251000,-0.148000,0.038000,-0.061000
3.271000,-0.147000,0.038000,-0.060000
3.291000,-0.145000,0.038000,-0.060000
3.311000,-0.142000,0.038000,-0.059000
3.331000,-0.139000,0.038000,-0.058000
3.351000,-0.136000,0.037000,-0.058000
3.371000,-0.133000,0.037000,-0.057000
3.391000,-0.131000,0.037000,-0.057000
3.411000,-0.130000,0.037000,-0.057000
3.431000,-0.128000,0.037000,-0.056000
3.451000,-0.127000,0.037000,-0.056000
3.471000,-0.127000,0.036000,-0.056000
3.491000,-0.126000,0.036000,-0.056000
3.511000,-0.126000,0.036000,-0.055000
3.531000,-0.124000,0.036000,-0.055000
3.551000,-0.122000,0.035000,-0.055000
3.571000,-0.120000,0.035000,-0.054000
3.591000,-0.118000,0.035000,-0.054000
3.611000,-0.115000,0.035000,-0.053000
3.631000,-0.113000,0.035000,-0.053000
3.651000,-0.111000,0.035000,-0.053000
3.671000,-0.111000,0.035000,-0.052000
3.691000,-0.111000,0.035000,-0.052000
3.711000,-0.111000,0.035000,-0.052000
3.731000,-0.111000,0.035000,-0.051000
3.751000,-0.109000,0.035000,-0.051000
3.771000,-0.107000,0.034000,-0.050000
3.791000,-0.105000,0.034000,-0.050000
3.811000,-0.104000,0.034000,-0.050000
3.831000,-0.104000,0.034000,-0.049000
3.851000,-0.104000,0.034000,-0.049000
3.871000,-0.104000,0.034000,-0.049000
3.891000,-0.104000,0.034000,-0.048000
3.911000,-0.103000,0.034000,-0.048000
3.931000,-0.102000,0.034000,-0.047000
3.951000,-0.101000,0.034000,-0.047000
3.971000,-0.100000,0.034000,-0.046000
3.991000,-0.100000,0.034000,-0.046000
4.011000,-0.100000,0.034000,-0.045000
4.031000,-0.099000,0.034000,-0.045000
4.051000,-0.098000,0.034000,-0.045000
4.071000,-0.098000,0.034000,-0.044000
4.091000,-0.098000,0.034000,-0.044000
4.111000,-0.097000,0.033000,-0.044000
4.131000,-0.097000,0.033000,-0.043000
4.151000,-0.096000,0.033000,-0.043000
4.171000,-0.096000,0.033000,-0.042000
4.191000,-0.095000,0.033000,-0.042000
4.211000,-0.095000,0.033000,-0.042000
4.231000,-0.094000,0.033000,-0.041000
4.251000,-0.093000,0.033000,-0.041000
4.271000,-0.093000,0.033000,-0.041000
4.291000,-0.093000,0.033000,-0.040000
4.311000,-0.092000,0.033000,-0.040000
4.331000,-0.092000,0.033000,-0.040000
4.351000,-0.092000,0.033000,-0.039000
4.371000,-0.092000,0.033000,-0.039000
4.391000,-0.091000,0.033000,-0.039000
4.411000,-0.091000,0.033000,-0.038000
4.431000,-0.091000,0.032000,-0.038000
4.451000,-0.091000,0.032000,-0.038000
4.471000,-0.090000,0.032000,-0.038000
4.491000,-0.090000,0.032000,-0.037000
4.511000,-0.090000,0.032000,-0.037000
4.531000,-0.090000,0.032000,-0.037000
4.551000,-0.089000,0.032000,-0.037000
4.571000,-0.089000,0.032000,-0.037000
4.591000,-0.090000,0.032000,-0.037000
4.611000,-0.090000,0.032000,-0.036000
4.631000,-0.089000,0.032000,-0.036000
4.651000,-0.089000,0.031000,-0.036000
4.671000,-0.088000,0.031000,-0.036000
4.691000,-0.087000,0.031000,-0.036000
4.711000,-0.087000,0.031000,-0.035000
4.731000,-0.087000,0.031000,-0.035000
4.751000,-0.087000,0.031000,-0.035000
4.771000,-0.087000,0.031000,-0.035000
4.791000,-0.086000,0.031000,-0.035000
4.811000,-0.086000,0.031000,-0.035000
4.831000,-0.086000,0.031000,-0.034000
4.851000,-0.085000,0.030000,-0.034000
4.871000,-0.085000,0.030000,-0.034000
4.891000,-0.085000,0.030000,-0.034000
4.911000,-0.085000,0.030000,-0.034000
4.931000,-0.084000,0.030000,-0.034000
4.951000,-0.084000,0.030000,-0.034000
4.971000,-0.084000,0.030000,-0.034000
4.991000,-0.084000,0.030000,-0.034000
5.011000,-0.083000,0.030000,-0.033000
5.031000,-0.083000,0.030000,-0.033000
5.051000,-0.082000,0.030000,-0.033000
5.071000,-0.081000,0.030000,-0.032000
5.091000,-0.079000,0.031000,-0.031000
5.111000,-0.076000,0.032000,-0.031000
5.131000,-0.074000,0.033000,-0.030000
5.151000,-0.073000,0.033000,-0.029000
5.171000,-0.072000,0.033000,-0.029000
5.191000,-0.071000,0.033000,-0.029000
5.211000,-0.071000,0.033000,-0.029000
5.231000,-0.072000,0.033000,-0.029000
5.251000,-0.073000,0.032000,-0.030000
5.271000,-0.075000,0.032000,-0.030000
5.291000,-0.077000,0.033000,-0.030000
5.311000,-0.078000,0.035000,-0.031000
5.331000,-0.077000,0.037000,-0.030000
5.351000,-0.078000,0.038000,-0.030000
5.371000,-0.078000,0.039000,-0.031000
5.391000,-0.075000,0.040000,-0.032000
5.411000,-0.069000,0.041000,-0.033000
5.431000,-0.059000,0.041000,-0.034000
5.451000,-0.044000,0.041000,-0.035000
5.471000,-0.029000,0.043000,-0.035000
5.491000,-0.015000,0.045000,-0.035000
5.511000,-0.002000,0.048000,-0.035000
5.531000,0.014000,0.052000,-0.036000
5.551000,0.033000,0.057000,-0.036000
5.571000,0.053000,0.061000,-0.035000
5.591000,0.074000,0.064000,-0.034000
5.611000,0.093000,0.065000,-0.031000
5.631000,0.111000,0.067000,-0.029000
5.651000,0.132000,0.071000,-0.025000
5.671000,0.156000,0.075000,-0.018000
5.691000,0.177000,0.080000,-0.011000
5.711000,0.184000,0.084000,-0.007000
5.731000,0.174000,0.086000,-0.008000
5.751000,0.156000,0.087000,-0.010000
5.771000,0.132000,0.085000,-0.015000
5.791000,0.109000,0.082000,-0.021000
5.811000,0.089000,0.078000,-0.029000
5.831000,0.077000,0.075000,-0.037000
5.851000,0.073000,0.070000,-0.045000
5.871000,0.076000,0.066000,-0.054000
5.891000,0.079000,0.062000,-0.062000
5.911000,0.079000,0.059000,-0.071000
5.931000,0.080000,0.056000,-0.080000
5.951000,0.092000,0.053000,-0.089000
5.971000,0.114000,0.050000,-0.096000
5.991000,0.138000,0.047000,-0.103000
