gyro_time_list,gyro_x_list,gyro_y_list,gyro_z_list
0.015000,0.142000,0.086000,0.344000
0.035000,0.108000,0.102000,0.327000
0.055000,0.102000,0.110000,0.349000
0.075000,0.116000,0.100000,0.402000
0.095000,0.148000,0.089000,0.454000
0.115000,0.154000,0.093000,0.463000
0.135000,0.122000,0.131000,0.489000
0.155000,0.064000,0.189000,0.507000
0.175000,-0.025000,0.248000,0.520000
0.195000,-0.143000,0.309000,0.535000
0.215000,-0.275000,0.380000,0.556000
0.235000,-0.404000,0.463000,0.590000
0.255000,-0.518000,0.557000,0.639000
0.275000,-0.603000,0.656000,0.703000
0.295000,-0.657000,0.761000,0.783000
0.315000,-0.694000,0.877000,0.872000
0.335000,-0.721000,1.005000,0.962000
0.355000,-0.731000,1.128000,1.056000
0.375000,-0.732000,1.242000,1.149000
0.395000,-0.750000,1.362000,1.232000
0.415000,-0.797000,1.496000,1.299000
0.435000,-0.875000,1.636000,1.350000
0.455000,-0.980000,1.773000,1.388000
0.475000,-1.107000,1.900000,1.417000
0.495000,-1.242000,2.011000,1.444000
0.515000,-1.369000,2.099000,1.473000
0.535000,-1.462000,2.160000,1.502000
0.555000,-1.511000,2.190000,1.530000
0.575000,-1.511000,2.189000,1.551000
0.595000,-1.477000,2.162000,1.559000
0.615000,-1.429000,2.117000,1.551000
0.635000,-1.383000,2.057000,1.525000
0.655000,-1.349000,1.988000,1.485000
0.675000,-1.333000,1.911000,1.434000
0.695000,-1.340000,1.827000,1.375000
0.715000,-1.364000,1.740000,1.312000
0.735000,-1.400000,1.651000,1.246000
0.755000,-1.436000,1.563000,1.182000
0.775000,-1.462000,1.476000,1.121000
0.795000,-1.468000,1.389000,1.066000
0.815000,-1.453000,1.299000,1.016000
0.835000,-1.424000,1.207000,0.968000
0.855000,-1.392000,1.114000,0.919000
0.875000,-1.354000,1.017000,0.870000
0.895000,-1.305000,0.913000,0.820000
0.915000,-1.253000,0.803000,0.764000
0.935000,-1.200000,0.685000,0.702000
0.955000,-1.143000,0.555000,0.633000
0.975000,-1.074000,0.414000,0.562000
0.995000,-0.999000,0.266000,0.487000
1.015000,-0.921000,0.109000,0.412000
1.035000,-0.834000,-0.054000,0.343000
1.055000,-0.739000,-0.216000,0.276000
1.075000,-0.636000,-0.381000,0.214000
1.095000,-0.528000,-0.549000,0.158000
1.115000,-0.424000,-0.713000,0.106000
1.135000,-0.328000,-0.864000,0.056000
1.155000,-0.241000,-1.002000,0.010000
1.175000,-0.162000,-1.128000,-0.031000
1.195000,-0.091000,-1.239000,-0.065000
1.215000,-0.033000,-1.332000,-0.092000
1.235000,0.006000,-1.413000,-0.114000
1.255000,0.029000,-1.491000,-0.133000
1.275000,0.031000,-1.571000,-0.153000
1.295000,0.006000,-1.654000,-0.182000
1.315000,-0.019000,-1.731000,-0.219000
1.335000,-0.008000,-1.795000,-0.261000
1.355000,0.045000,-1.847000,-0.304000
1.375000,0.118000,-1.892000,-0.342000
1.395000,0.173000,-1.930000,-0.379000
1.415000,0.199000,-1.944000,-0.415000
1.435000,0.203000,-1.920000,-0.440000
1.455000,0.169000,-1.838000,-0.446000
1.475000,0.089000,-1.684000,-0.429000
1.495000,-0.014000,-1.495000,-0.390000
1.515000,-0.092000,-1.275000,-0.332000
1.535000,-0.140000,-0.939000,-0.262000
1.555000,-0.227000,-0.576000,-0.202000
1.575000,-0.294000,-0.197000,-0.139000
1.595000,-0.289000,-0.010000,-0.099000
1.615000,-0.165000,-0.372000,-0.204000
1.635000,0.034000,-0.725000,-0.196000
1.655000,0.124000,-1.062000,-0.268000
1.675000,-0.015000,-0.824000,-0.426000
1.695000,-0.221000,-0.441000,-0.449000
1.715000,-0.454000,-0.505000,-0.420000
1.735000,-0.532000,-0.562000,-0.417000
1.755000,-0.444000,-0.525000,-0.367000
1.775000,-0.365000,-0.494000,-0.351000
1.795000,-0.371000,-0.441000,-0.334000
1.815000,-0.374000,-0.423000,-0.336000
1.835000,-0.353000,-0.393000,-0.325000
1.855000,-0.339000,-0.326000,-0.307000
1.875000,-0.348000,-0.304000,-0.304000
1.895000,-0.377000,-0.308000,-0.302000
1.915000,-0.405000,-0.304000,-0.293000
1.935000,-0.406000,-0.300000,-0.289000
1.955000,-0.399000,-0.291000,-0.283000
1.975000,-0.399000,-0.274000,-0.277000
1.995000,-0.398000,-0.253000,-0.270000
2.015000,-0.385000,-0.234000,-0.264000
2.035000,-0.365000,-0.221000,-0.259000
2.055000,-0.347000,-0.210000,-0.254000
2.075000,-0.331000,-0.203000,-0.250000
2.095000,-0.308000,-0.206000,-0.248000
2.115000,-0.284000,-0.202000,-0.245000
2.135000,-0.268000,-0.188000,-0.239000
2.155000,-0.257000,-0.182000,-0.235000
2.175000,-0.251000,-0.181000,-0.233000
2.195000,-0.241000,-0.179000,-0.230000
2.215000,-0.226000,-0.174000,-0.225000
2.235000,-0.207000,-0.170000,-0.220000
2.255000,-0.195000,-0.167000,-0.216000
2.275000,-0.189000,-0.160000,-0.211000
2.295000,-0.184000,-0.152000,-0.205000
2.315000,-0.178000,-0.148000,-0.200000
2.335000,-0.170000,-0.146000,-0.196000
2.355000,-0.161000,-0.141000,-0.192000
2.375000,-0.156000,-0.138000,-0.189000
2.395000,-0.154000,-0.136000,-0.186000
2.415000,-0.153000,-0.134000,-0.184000
2.435000,-0.150000,-0.132000,-0.182000
2.455000,-0.147000,-0.130000,-0.178000
2.475000,-0.143000,-0.126000,-0.175000
2.495000,-0.137000,-0.122000,-0.173000
2.515000,-0.130000,-0.119000,-0.170000
2.535000,-0.124000,-0.116000,-0.168000
2.555000,-0.124000,-0.114000,-0.165000
2.575000,-0.125000,-0.109000,-0.162000
2.595000,-0.125000,-0.103000,-0.159000
2.615000,-0.125000,-0.100000,-0.156000
2.635000,-0.125000,-0.098000,-0.154000
2.655000,-0.125000,-0.095000,-0.152000
2.675000,-0.125000,-0.091000,-0.150000
2.695000,-0.124000,-0.089000,-0.148000
2.715000,-0.123000,-0.088000,-0.146000
2.735000,-0.121000,-0.086000,-0.144000
2.755000,-0.119000,-0.083000,-0.143000
2.775000,-0.117000,-0.082000,-0.141000
2.795000,-0.115000,-0.081000,-0.139000
2.815000,-0.113000,-0.079000,-0.138000
2.835000,-0.110000,-0.076000,-0.136000
2.855000,-0.107000,-0.075000,-0.134000
2.875000,-0.107000,-0.073000,-0.133000
2.895000,-0.108000,-0.072000,-0.131000
2.915000,-0.107000,-0.070000,-0.130000
2.935000,-0.106000,-0.068000,-0.128000
2.955000,-0.104000,-0.067000,-0.127000
2.975000,-0.103000,-0.066000,-0.125000
2.995000,-0.103000,-0.064000,-0.124000
3.015000,-0.103000,-0.063000,-0.123000
3.035000,-0.104000,-0.062000,-0.121000
3.055000,-0.104000,-0.060000,-0.120000
3.075000,-0.104000,-0.057000,-0.119000
3.095000,-0.103000,-0.056000,-0.117000
3.115000,-0.102000,-0.055000,-0.116000
3.135000,-0.102000,-0.054000,-0.115000
3.155000,-0.103000,-0.053000,-0.114000
3.175000,-0.103000,-0.052000,-0.112000
3.195000,-0.103000,-0.051000,-0.111000
3.215000,-0.101000,-0.050000,-0.110000
3.235000,-0.100000,-0.049000,-0.109000
3.255000,-0.098000,-0.048000,-0.108000
3.275000,-0.097000,-0.047000,-0.107000
3.295000,-0.097000,-0.047000,-0.106000
3.315000,-0.096000,-0.046000,-0.105000
3.335000,-0.095000,-0.045000,-0.104000
3.355000,-0.094000,-0.044000,-0.103000
3.375000,-0.093000,-0.043000,-0.102000
3.395000,-0.092000,-0.042000,-0.101000
3.415000,-0.091000,-0.042000,-0.100000
3.435000,-0.090000,-0.041000,-0.099000
3.455000,-0.090000,-0.040000,-0.098000
3.475000,-0.090000,-0.039000,-0.098000
3.495000,-0.090000,-0.038000,-0.097000
3.515000,-0.089000,-0.038000,-0.096000
3.535000,-0.088000,-0.037000,-0.095000
3.555000,-0.087000,-0.036000,-0.094000
3.575000,-0.087000,-0.035000,-0.093000
3.595000,-0.087000,-0.035000,-0.093000
3.615000,-0.087000,-0.034000,-0.092000
3.635000,-0.087000,-0.033000,-0.091000
3.655000,-0.086000,-0.033000,-0.090000
3.675000,-0.086000,-0.032000,-0.090000
3.695000,-0.085000,-0.032000,-0.089000
3.715000,-0.084000,-0.031000,-0.088000
3.735000,-0.084000,-0.031000,-0.087000
3.755000,-0.085000,-0.030000,-0.087000
3.775000,-0.085000,-0.029000,-0.086000
3.795000,-0.084000,-0.029000,-0.085000
3.815000,-0.084000,-0.029000,-0.085000
3.835000,-0.083000,-0.028000,-0.084000
3.855000,-0.082000,-0.027000,-0.083000
3.875000,-0.082000,-0.027000,-0.083000
3.895000,-0.082000,-0.026000,-0.082000
3.915000,-0.082000,-0.026000,-0.081000
3.935000,-0.082000,-0.025000,-0.081000
3.955000,-0.081000,-0.025000,-0.080000
3.975000,-0.080000,-0.024000,-0.079000
3.995000,-0.080000,-0.024000,-0.079000
4.015000,-0.080000,-0.023000,-0.078000
4.035000,-0.080000,-0.023000,-0.077000
4.055000,-0.080000,-0.023000,-0.077000
4.075000,-0.079000,-0.022000,-0.076000
4.095000,-0.079000,-0.022000,-0.076000
4.115000,-0.079000,-0.021000,-0.075000
4.135000,-0.078000,-0.021000,-0.074000
4.155000,-0.078000,-0.020000,-0.074000
4.175000,-0.078000,-0.020000,-0.073000
4.195000,-0.077000,-0.020000,-0.073000
4.215000,-0.077000,-0.019000,-0.072000
4.235000,-0.077000,-0.019000,-0.072000
4.255000,-0.077000,-0.018000,-0.071000
4.275000,-0.077000,-0.018000,-0.070000
4.295000,-0.077000,-0.018000,-0.070000
4.315000,-0.076000,-0.017000,-0.069000
4.335000,-0.076000,-0.017000,-0.069000
4.355000,-0.075000,-0.016000,-0.068000
4.375000,-0.075000,-0.016000,-0.068000
4.395000,-0.075000,-0.016000,-0.067000
4.415000,-0.075000,-0.015000,-0.067000
4.435000,-0.074000,-0.015000,-0.066000
4.455000,-0.073000,-0.015000,-0.066000
4.475000,-0.073000,-0.014000,-0.065000
4.495000,-0.073000,-0.014000,-0.065000
4.515000,-0.073000,-0.014000,-0.064000
4.535000,-0.073000,-0.013000,-0.064000
4.555000,-0.072000,-0.013000,-0.063000
4.575000,-0.072000,-0.013000,-0.063000
4.595000,-0.071000,-0.013000,-0.062000
4.615000,-0.071000,-0.012000,-0.062000
4.635000,-0.071000,-0.012000,-0.062000
4.655000,-0.071000,-0.011000,-0.061000
4.675000,-0.070000,-0.011000,-0.061000
4.695000,-0.070000,-0.011000,-0.060000
4.715000,-0.070000,-0.011000,-0.060000
4.735000,-0.070000,-0.010000,-0.059000
4.755000,-0.070000,-0.010000,-0.059000
4.775000,-0.069000,-0.010000,-0.058000
4.795000,-0.069000,-0.009000,-0.058000
4.815000,-0.069000,-0.009000,-0.058000
4.835000,-0.068000,-0.009000,-0.057000
4.855000,-0.068000,-0.009000,-0.057000
4.875000,-0.068000,-0.008000,-0.056000
4.895000,-0.068000,-0.008000,-0.056000
4.915000,-0.068000,-0.008000,-0.055000
4.935000,-0.068000,-0.007000,-0.055000
4.955000,-0.068000,-0.007000,-0.055000
4.975000,-0.067000,-0.007000,-0.054000
4.995000,-0.067000,-0.006000,-0.054000
5.015000,-0.067000,-0.006000,-0.053000
5.035000,-0.066000,-0.006000,-0.053000
5.055000,-0.066000,-0.006000,-0.053000
5.075000,-0.065000,-0.005000,-0.052000
5.095000,-0.065000,-0.005000,-0.052000
5.115000,-0.065000,-0.005000,-0.052000
5.135000,-0.064000,-0.005000,-0.052000
5.155000,-0.064000,-0.004000,-0.052000
5.175000,-0.063000,-0.004000,-0.051000
5.195000,-0.063000,-0.004000,-0.051000
5.215000,-0.062000,-0.005000,-0.051000
5.235000,-0.062000,-0.005000,-0.051000
5.255000,-0.061000,-0.004000,-0.051000
5.275000,-0.060000,-0.005000,-0.051000
5.295000,-0.058000,-0.005000,-0.051000
5.315000,-0.057000,-0.005000,-0.051000
5.335000,-0.055000,-0.005000,-0.051000
5.355000,-0.053000,-0.005000,-0.051000
5.375000,-0.051000,-0.005000,-0.050000
5.395000,-0.049000,-0.006000,-0.050000
5.415000,-0.048000,-0.006000,-0.050000
5.435000,-0.047000,-0.006000,-0.050000
5.455000,-0.046000,-0.005000,-0.049000
5.475000,-0.046000,-0.005000,-0.049000
5.495000,-0.046000,-0.005000,-0.049000
5.515000,-0.044000,-0.005000,-0.049000
5.535000,-0.043000,-0.005000,-0.049000
5.555000,-0.043000,-0.005000,-0.049000
5.575000,-0.043000,-0.005000,-0.049000
5.595000,-0.042000,-0.005000,-0.049000
5.615000,-0.042000,-0.006000,-0.049000
5.635000,-0.043000,-0.007000,-0.049000
5.655000,-0.042000,-0.007000,-0.050000
5.675000,-0.041000,-0.008000,-0.049000
5.695000,-0.041000,-0.008000,-0.049000
5.715000,-0.040000,-0.007000,-0.049000
5.735000,-0.038000,-0.008000,-0.049000
5.755000,-0.035000,-0.009000,-0.048000
5.775000,-0.036000,-0.008000,-0.047000
5.795000,-0.040000,-0.007000,-0.047000
5.815000,-0.045000,-0.006000,-0.046000
5.835000,-0.048000,-0.005000,-0.045000
5.855000,-0.050000,-0.005000,-0.045000
5.875000,-0.050000,-0.005000,-0.045000
5.895000,-0.048000,-0.003000,-0.044000
5.915000,-0.046000,-0.003000,-0.044000
5.935000,-0.043000,-0.003000,-0.044000
5.955000,-0.039000,-0.003000,-0.043000
5.975000,-0.035000,-0.003000,-0.043000
5.995000,-0.034000,-0.002000,-0.042000
6.015000,-0.034000,-0.002000,-0.042000
6.035000,-0.034000,0.000000,-0.042000
6.055000,-0.029000,0.001000,-0.041000
6.075000,-0.024000,0.000000,-0.041000
6.095000,-0.020000,-0.001000,-0.041000
6.115000,-0.017000,-0.002000,-0.043000
6.135000,-0.008000,-0.003000,-0.045000
6.155000,0.003000,-0.003000,-0.046000
6.175000,0.013000,-0.006000,-0.046000
6.195000,0.021000,-0.009000,-0.048000
6.215000,0.031000,-0.009000,-0.049000
6.235000,0.045000,-0.009000,-0.050000
6.255000,0.056000,-0.007000,-0.051000
6.275000,0.059000,-0.006000,-0.053000
6.295000,0.061000,-0.005000,-0.055000
6.315000,0.066000,-0.005000,-0.055000
6.335000,0.069000,-0.004000,-0.055000
6.355000,0.071000,-0.001000,-0.056000
6.375000,0.073000,0.001000,-0.056000
6.395000,0.075000,0.001000,-0.056000
6.415000,0.074000,0.001000,-0.056000
6.435000,0.070000,0.003000,-0.056000
6.455000,0.067000,0.005000,-0.056000
6.475000,0.067000,0.007000,-0.055000
6.495000,0.068000,0.008000,-0.054000
6.515000,0.068000,0.009000,-0.053000
6.535000,0.066000,0.009000,-0.053000
6.555000,0.065000,0.010000,-0.052000
6.575000,0.063000,0.010000,-0.050000
6.595000,0.059000,0.011000,-0.049000
6.615000,0.053000,0.014000,-0.048000
6.635000,0.048000,0.016000,-0.047000
6.655000,0.045000,0.017000,-0.046000
6.675000,0.045000,0.016000,-0.045000
6.695000,0.044000,0.018000,-0.043000
6.715000,0.041000,0.019000,-0.042000
6.735000,0.039000,0.021000,-0.041000
6.755000,0.037000,0.021000,-0.040000
6.775000,0.038000,0.020000,-0.039000
6.795000,0.041000,0.020000,-0.037000
6.815000,0.040000,0.021000,-0.036000
6.835000,0.036000,0.021000,-0.037000
6.855000,0.034000,0.020000,-0.037000
6.875000,0.032000,0.018000,-0.036000
6.895000,0.032000,0.016000,-0.035000
6.915000,0.030000,0.018000,-0.034000
6.935000,0.023000,0.023000,-0.032000
6.955000,0.014000,0.029000,-0.030000
6.975000,0.008000,0.033000,-0.027000
6.995000,0.008000,0.035000,-0.022000
7.015000,0.005000,0.044000,-0.014000
7.035000,-0.002000,0.056000,-0.005000
7.055000,-0.007000,0.063000,0.002000
7.075000,0.000000,0.073000,0.011000
7.095000,0.019000,0.089000,0.019000
7.115000,0.042000,0.108000,0.027000
7.135000,0.060000,0.129000,0.033000
7.155000,0.064000,0.155000,0.039000
7.175000,0.054000,0.180000,0.043000
7.195000,0.041000,0.204000,0.048000
7.215000,0.028000,0.229000,0.051000
7.235000,0.005000,0.251000,0.052000
7.255000,-0.003000,0.270000,0.043000
7.275000,0.015000,0.283000,0.042000
7.295000,0.038000,0.288000,0.038000
7.315000,0.048000,0.284000,0.026000
7.335000,0.040000,0.271000,0.012000
7.355000,0.028000,0.253000,-0.008000
7.375000,0.022000,0.234000,-0.029000
7.395000,0.023000,0.215000,-0.051000
7.415000,0.028000,0.196000,-0.074000
7.435000,0.040000,0.178000,-0.097000
7.455000,0.061000,0.163000,-0.121000
7.475000,0.087000,0.149000,-0.144000
7.495000,0.105000,0.133000,-0.170000
7.515000,0.114000,0.117000,-0.197000
7.535000,0.116000,0.104000,-0.224000
7.555000,0.108000,0.094000,-0.251000
7.575000,0.090000,0.086000,-0.277000
7.595000,0.061000,0.079000,-0.303000
7.615000,0.028000,0.073000,-0.323000
7.635000,-0.012000,0.067000,-0.342000
7.655000,-0.060000,0.062000,-0.360000
7.675000,-0.104000,0.061000,-0.378000
7.695000,-0.135000,0.063000,-0.396000
7.715000,-0.153000,0.061000,-0.406000
7.735000,-0.167000,0.055000,-0.409000
7.755000,-0.182000,0.052000,-0.411000
7.775000,-0.188000,0.051000,-0.413000
7.795000,-0.182000,0.047000,-0.407000
7.815000,-0.175000,0.042000,-0.398000
7.835000,-0.169000,0.038000,-0.390000
7.855000,-0.160000,0.035000,-0.383000
7.875000,-0.147000,0.034000,-0.375000
7.895000,-0.132000,0.031000,-0.368000
7.915000,-0.117000,0.029000,-0.360000
7.935000,-0.105000,0.028000,-0.352000
7.955000,-0.094000,0.028000,-0.347000
7.975000,-0.082000,0.027000,-0.341000
7.995000,-0.067000,0.025000,-0.333000
