gyro_time_list,gyro_x_list,gyro_y_list,gyro_z_list
0.006000,-0.031000,0.179000,0.440000
0.026000,-0.045000,0.232000,0.393000
0.046000,-0.080000,0.304000,0.367000
0.066000,-0.127000,0.410000,0.394000
0.086000,-0.191000,0.514000,0.471000
0.106000,-0.249000,0.628000,0.556000
0.126000,-0.309000,0.760000,0.657000
0.146000,-0.356000,0.914000,0.765000
0.166000,-0.410000,1.074000,0.881000
0.186000,-0.499000,1.236000,1.002000
0.206000,-0.601000,1.410000,1.125000
0.226000,-0.692000,1.591000,1.258000
0.246000,-0.770000,1.758000,1.403000
0.266000,-0.856000,1.903000,1.555000
0.286000,-0.958000,2.037000,1.703000
0.306000,-1.071000,2.164000,1.844000
0.326000,-1.189000,2.280000,1.973000
0.346000,-1.313000,2.376000,2.081000
0.366000,-1.443000,2.447000,2.165000
0.386000,-1.568000,2.486000,2.224000
0.406000,-1.676000,2.492000,2.259000
0.426000,-1.752000,2.468000,2.269000
0.446000,-1.798000,2.420000,2.251000
0.466000,-1.813000,2.355000,2.210000
0.486000,-1.807000,2.277000,2.151000
0.506000,-1.793000,2.190000,2.077000
0.526000,-1.781000,2.097000,1.993000
0.546000,-1.775000,2.001000,1.904000
0.566000,-1.776000,1.901000,1.813000
0.586000,-1.783000,1.800000,1.723000
0.606000,-1.792000,1.699000,1.637000
0.626000,-1.796000,1.599000,1.557000
0.646000,-1.793000,1.502000,1.482000
0.666000,-1.781000,1.408000,1.410000
0.686000,-1.760000,1.318000,1.340000
0.706000,-1.725000,1.233000,1.270000
0.726000,-1.678000,1.149000,1.199000
0.746000,-1.627000,1.063000,1.123000
0.766000,-1.575000,0.972000,1.043000
0.786000,-1.524000,0.879000,0.956000
0.806000,-1.470000,0.784000,0.860000
0.826000,-1.409000,0.684000,0.757000
0.846000,-1.340000,0.579000,0.649000
0.866000,-1.267000,0.474000,0.536000
0.886000,-1.190000,0.365000,0.419000
0.906000,-1.101000,0.252000,0.300000
0.926000,-0.998000,0.136000,0.186000
0.946000,-0.889000,0.019000,0.076000
0.966000,-0.782000,-0.098000,-0.029000
0.986000,-0.679000,-0.214000,-0.126000
1.006000,-0.584000,-0.327000,-0.216000
1.026000,-0.499000,-0.436000,-0.300000
1.046000,-0.422000,-0.543000,-0.376000
1.066000,-0.353000,-0.650000,-0.447000
1.086000,-0.300000,-0.761000,-0.514000
1.106000,-0.269000,-0.876000,-0.576000
1.126000,-0.252000,-0.989000,-0.640000
1.146000,-0.231000,-1.090000,-0.712000
1.166000,-0.194000,-1.175000,-0.787000
1.186000,-0.146000,-1.251000,-0.864000
1.206000,-0.085000,-1.313000,-0.929000
1.226000,-0.009000,-1.349000,-0.973000
1.246000,0.070000,-1.356000,-0.998000
1.266000,0.131000,-1.341000,-1.012000
1.286000,0.166000,-1.298000,-1.000000
1.306000,0.166000,-1.220000,-0.956000
1.326000,0.151000,-1.088000,-0.876000
1.346000,0.137000,-0.879000,-0.761000
1.366000,0.142000,-0.591000,-0.576000
1.386000,0.103000,-0.281000,-0.337000
1.406000,0.179000,-0.565000,-0.369000
1.426000,0.340000,-0.849000,-0.586000
1.446000,0.242000,-1.095000,-0.458000
1.466000,0.286000,-1.023000,-0.691000
1.486000,0.448000,-0.832000,-0.750000
1.506000,0.336000,-0.668000,-0.762000
1.526000,0.142000,-0.493000,-0.724000
1.546000,0.064000,-0.386000,-0.661000
1.566000,0.094000,-0.326000,-0.610000
1.586000,0.097000,-0.277000,-0.581000
1.606000,0.082000,-0.245000,-0.556000
1.626000,0.072000,-0.233000,-0.528000
1.646000,0.047000,-0.224000,-0.501000
1.666000,0.032000,-0.214000,-0.476000
1.686000,0.024000,-0.211000,-0.454000
1.706000,0.016000,-0.215000,-0.435000
1.726000,0.017000,-0.214000,-0.418000
1.746000,0.020000,-0.213000,-0.401000
1.766000,0.019000,-0.216000,-0.385000
1.786000,0.012000,-0.218000,-0.371000
1.806000,0.008000,-0.216000,-0.357000
1.826000,0.009000,-0.217000,-0.343000
1.846000,0.014000,-0.218000,-0.330000
1.866000,0.017000,-0.211000,-0.320000
1.886000,0.014000,-0.205000,-0.310000
1.906000,0.013000,-0.202000,-0.301000
1.926000,0.016000,-0.202000,-0.291000
1.946000,0.022000,-0.200000,-0.282000
1.966000,0.026000,-0.199000,-0.272000
1.986000,0.027000,-0.198000,-0.263000
2.006000,0.026000,-0.196000,-0.255000
2.026000,0.024000,-0.191000,-0.248000
2.046000,0.023000,-0.188000,-0.241000
2.066000,0.025000,-0.188000,-0.233000
2.086000,0.026000,-0.189000,-0.226000
2.106000,0.028000,-0.189000,-0.220000
2.126000,0.032000,-0.189000,-0.212000
2.146000,0.036000,-0.190000,-0.206000
2.166000,0.038000,-0.189000,-0.200000
2.186000,0.038000,-0.185000,-0.195000
2.206000,0.036000,-0.183000,-0.191000
2.226000,0.035000,-0.181000,-0.187000
2.246000,0.034000,-0.179000,-0.183000
2.266000,0.033000,-0.177000,-0.179000
2.286000,0.036000,-0.175000,-0.174000
2.306000,0.037000,-0.172000,-0.170000
2.326000,0.036000,-0.167000,-0.166000
2.346000,0.034000,-0.163000,-0.163000
2.366000,0.033000,-0.160000,-0.160000
2.386000,0.032000,-0.157000,-0.157000
2.406000,0.032000,-0.154000,-0.154000
2.426000,0.032000,-0.152000,-0.151000
2.446000,0.032000,-0.150000,-0.148000
2.466000,0.034000,-0.148000,-0.145000
2.486000,0.035000,-0.146000,-0.142000
2.506000,0.035000,-0.145000,-0.139000
2.526000,0.035000,-0.143000,-0.137000
2.546000,0.034000,-0.140000,-0.134000
2.566000,0.034000,-0.139000,-0.132000
2.586000,0.036000,-0.139000,-0.131000
2.606000,0.040000,-0.140000,-0.128000
2.626000,0.045000,-0.142000,-0.126000
2.646000,0.049000,-0.144000,-0.124000
2.666000,0.050000,-0.145000,-0.122000
2.686000,0.050000,-0.144000,-0.120000
2.706000,0.050000,-0.143000,-0.119000
2.726000,0.049000,-0.142000,-0.117000
2.746000,0.048000,-0.139000,-0.116000
2.766000,0.046000,-0.137000,-0.114000
2.786000,0.045000,-0.135000,-0.113000
2.806000,0.043000,-0.133000,-0.111000
2.826000,0.042000,-0.131000,-0.110000
2.846000,0.041000,-0.128000,-0.109000
2.866000,0.039000,-0.126000,-0.107000
2.886000,0.038000,-0.124000,-0.106000
2.906000,0.038000,-0.122000,-0.105000
2.926000,0.037000,-0.120000,-0.103000
2.946000,0.036000,-0.119000,-0.102000
2.966000,0.036000,-0.117000,-0.101000
2.986000,0.035000,-0.116000,-0.100000
3.006000,0.034000,-0.114000,-0.099000
3.026000,0.033000,-0.112000,-0.098000
3.046000,0.033000,-0.110000,-0.097000
3.066000,0.032000,-0.108000,-0.096000
3.086000,0.032000,-0.106000,-0.094000
3.106000,0.031000,-0.105000,-0.093000
3.126000,0.030000,-0.103000,-0.092000
3.146000,0.030000,-0.102000,-0.092000
3.166000,0.029000,-0.101000,-0.091000
3.186000,0.029000,-0.100000,-0.091000
3.206000,0.029000,-0.099000,-0.090000
3.226000,0.029000,-0.097000,-0.089000
3.246000,0.030000,-0.097000,-0.088000
3.266000,0.030000,-0.096000,-0.087000
3.286000,0.031000,-0.095000,-0.086000
3.306000,0.031000,-0.094000,-0.085000
3.326000,0.032000,-0.094000,-0.084000
3.346000,0.034000,-0.094000,-0.083000
3.366000,0.036000,-0.095000,-0.082000
3.386000,0.039000,-0.096000,-0.081000
3.406000,0.042000,-0.097000,-0.080000
3.426000,0.044000,-0.097000,-0.079000
3.446000,0.044000,-0.096000,-0.078000
3.466000,0.044000,-0.096000,-0.078000
3.486000,0.043000,-0.095000,-0.078000
3.506000,0.044000,-0.095000,-0.077000
3.526000,0.046000,-0.095000,-0.076000
3.546000,0.048000,-0.095000,-0.075000
3.566000,0.048000,-0.095000,-0.074000
3.586000,0.048000,-0.095000,-0.074000
3.606000,0.048000,-0.095000,-0.074000
3.626000,0.049000,-0.095000,-0.074000
3.646000,0.049000,-0.094000,-0.073000
3.666000,0.048000,-0.093000,-0.073000
3.686000,0.048000,-0.092000,-0.073000
3.706000,0.047000,-0.092000,-0.073000
3.726000,0.047000,-0.091000,-0.072000
3.746000,0.046000,-0.090000,-0.072000
3.766000,0.045000,-0.089000,-0.072000
3.786000,0.044000,-0.088000,-0.071000
3.806000,0.044000,-0.087000,-0.070000
3.826000,0.044000,-0.086000,-0.070000
3.846000,0.043000,-0.085000,-0.069000
3.866000,0.044000,-0.084000,-0.069000
3.886000,0.045000,-0.083000,-0.068000
3.906000,0.047000,-0.083000,-0.067000
3.926000,0.049000,-0.083000,-0.066000
3.946000,0.049000,-0.082000,-0.066000
3.966000,0.048000,-0.081000,-0.065000
3.986000,0.047000,-0.080000,-0.065000
4.006000,0.047000,-0.079000,-0.065000
4.026000,0.047000,-0.078000,-0.064000
4.046000,0.047000,-0.077000,-0.064000
4.066000,0.046000,-0.077000,-0.063000
4.086000,0.046000,-0.076000,-0.063000
4.106000,0.045000,-0.075000,-0.062000
4.126000,0.044000,-0.074000,-0.062000
4.146000,0.043000,-0.073000,-0.062000
4.166000,0.043000,-0.073000,-0.062000
4.186000,0.042000,-0.072000,-0.061000
4.206000,0.042000,-0.071000,-0.061000
4.226000,0.042000,-0.070000,-0.061000
4.246000,0.042000,-0.070000,-0.060000
4.266000,0.042000,-0.069000,-0.060000
4.286000,0.042000,-0.068000,-0.060000
4.306000,0.042000,-0.068000,-0.060000
4.326000,0.042000,-0.067000,-0.059000
4.346000,0.042000,-0.067000,-0.059000
4.366000,0.041000,-0.066000,-0.059000
4.386000,0.040000,-0.065000,-0.059000
4.406000,0.038000,-0.064000,-0.058000
4.426000,0.037000,-0.063000,-0.058000
4.446000,0.035000,-0.062000,-0.058000
4.466000,0.032000,-0.061000,-0.057000
4.486000,0.030000,-0.061000,-0.057000
4.506000,0.028000,-0.060000,-0.057000
4.526000,0.025000,-0.059000,-0.056000
4.546000,0.023000,-0.058000,-0.056000
4.566000,0.020000,-0.058000,-0.055000
4.586000,0.016000,-0.057000,-0.055000
4.606000,0.011000,-0.056000,-0.055000
4.626000,0.006000,-0.056000,-0.054000
4.646000,0.002000,-0.056000,-0.053000
4.666000,-0.001000,-0.056000,-0.053000
4.686000,-0.002000,-0.056000,-0.052000
4.706000,-0.002000,-0.055000,-0.052000
4.726000,-0.001000,-0.054000,-0.051000
4.746000,-0.002000,-0.054000,-0.051000
4.766000,-0.003000,-0.053000,-0.050000
4.786000,-0.003000,-0.052000,-0.050000
4.806000,-0.003000,-0.051000,-0.050000
4.826000,-0.004000,-0.051000,-0.049000
4.846000,-0.004000,-0.050000,-0.049000
4.866000,-0.005000,-0.050000,-0.049000
4.886000,-0.005000,-0.049000,-0.048000
4.906000,-0.006000,-0.048000,-0.048000
4.926000,-0.006000,-0.048000,-0.048000
4.946000,-0.007000,-0.047000,-0.047000
4.966000,-0.008000,-0.046000,-0.047000
4.986000,-0.008000,-0.045000,-0.047000
5.006000,-0.008000,-0.044000,-0.047000
5.026000,-0.009000,-0.044000,-0.046000
5.046000,-0.011000,-0.043000,-0.046000
5.066000,-0.013000,-0.043000,-0.045000
5.086000,-0.014000,-0.042000,-0.045000
5.106000,-0.014000,-0.042000,-0.044000
5.126000,-0.014000,-0.042000,-0.044000
5.146000,-0.015000,-0.041000,-0.044000
5.166000,-0.016000,-0.040000,-0.043000
5.186000,-0.016000,-0.040000,-0.043000
5.206000,-0.016000,-0.039000,-0.043000
5.226000,-0.016000,-0.038000,-0.042000
5.246000,-0.017000,-0.038000,-0.042000
5.266000,-0.017000,-0.037000,-0.042000
5.286000,-0.017000,-0.036000,-0.042000
5.306000,-0.017000,-0.035000,-0.042000
5.326000,-0.017000,-0.035000,-0.041000
5.346000,-0.018000,-0.034000,-0.041000
5.366000,-0.020000,-0.034000,-0.041000
5.386000,-0.020000,-0.034000,-0.040000
5.406000,-0.020000,-0.033000,-0.040000
5.426000,-0.020000,-0.033000,-0.040000
5.446000,-0.020000,-0.032000,-0.040000
5.466000,-0.021000,-0.032000,-0.039000
5.486000,-0.021000,-0.031000,-0.039000
5.506000,-0.022000,-0.031000,-0.039000
5.526000,-0.022000,-0.030000,-0.039000
5.546000,-0.023000,-0.029000,-0.038000
5.566000,-0.023000,-0.028000,-0.038000
5.586000,-0.023000,-0.027000,-0.038000
5.606000,-0.024000,-0.027000,-0.038000
5.626000,-0.025000,-0.026000,-0.038000
5.646000,-0.026000,-0.027000,-0.038000
5.666000,-0.026000,-0.026000,-0.037000
5.686000,-0.026000,-0.026000,-0.037000
5.706000,-0.026000,-0.025000,-0.037000
5.726000,-0.027000,-0.025000,-0.037000
5.746000,-0.027000,-0.024000,-0.037000
5.766000,-0.027000,-0.023000,-0.036000
5.786000,-0.027000,-0.023000,-0.036000
5.806000,-0.028000,-0.023000,-0.036000
5.826000,-0.028000,-0.021000,-0.036000
5.846000,-0.027000,-0.020000,-0.036000
5.866000,-0.028000,-0.020000,-0.036000
5.886000,-0.029000,-0.020000,-0.036000
5.906000,-0.029000,-0.020000,-0.035000
5.926000,-0.028000,-0.020000,-0.035000
5.946000,-0.028000,-0.020000,-0.035000
5.966000,-0.028000,-0.019000,-0.035000
5.986000,-0.027000,-0.019000,-0.034000
