accel_time_list,accel_x_list,accel_y_list,accel_z_list
0.010000,-8.425196,-1.405396,3.763685
0.030000,-8.814253,-0.635661,3.853467
0.050000,-8.460815,-1.000756,3.845877
0.070000,-8.195486,-1.344018,3.816319
0.090000,-8.100824,-1.403228,3.757802
0.110000,-8.058302,-1.355418,3.665041
0.130000,-8.115192,-1.389641,3.613380
0.150000,-8.219439,-1.513031,3.524103
0.170000,-8.237700,-1.534380,3.469533
0.190000,-8.274809,-1.447603,3.454132
0.210000,-8.364718,-1.305171,3.441784
0.230000,-8.459970,-1.164992,3.437407
0.250000,-8.528906,-1.045593,3.431651
0.270000,-8.576110,-0.943793,3.418905
0.290000,-8.611797,-0.849435,3.403482
0.310000,-8.631794,-0.766669,3.391513
0.330000,-8.639600,-0.706974,3.377226
0.350000,-8.639942,-0.664984,3.357876
0.370000,-8.632726,-0.622724,3.337454
0.390000,-8.623249,-0.573073,3.322118
0.410000,-8.620421,-0.520263,3.313037
0.430000,-8.623654,-0.468392,3.308478
0.450000,-8.629635,-0.419405,3.294485
0.470000,-8.631882,-0.368794,3.266763
0.490000,-8.630652,-0.319071,3.236700
0.510000,-8.624927,-0.275873,3.206814
0.530000,-8.626731,-0.240568,3.170111
0.550000,-8.645718,-0.212570,3.128157
0.570000,-8.674622,-0.189635,3.082742
0.590000,-8.696796,-0.168419,3.038980
0.610000,-8.703681,-0.153282,2.999586
0.630000,-8.703814,-0.145538,2.962440
0.650000,-8.704091,-0.146222,2.925287
0.670000,-8.701612,-0.147905,2.885127
0.690000,-8.697844,-0.150803,2.843657
0.710000,-8.699739,-0.152766,2.803874
0.730000,-8.709065,-0.146997,2.766411
0.750000,-8.723738,-0.133731,2.728284
0.770000,-8.736332,-0.114651,2.687935
0.790000,-8.743943,-0.094965,2.648412
0.810000,-8.750749,-0.075836,2.611117
0.830000,-8.756985,-0.059439,2.574704
0.850000,-8.755352,-0.047008,2.538715
0.870000,-8.747382,-0.039538,2.503249
0.890000,-8.737838,-0.034564,2.467158
0.910000,-8.733141,-0.028278,2.430453
0.930000,-8.732019,-0.017733,2.394993
0.950000,-8.732703,-0.002901,2.358389
0.970000,-8.738355,0.015149,2.322037
0.990000,-8.750113,0.034497,2.284008
1.010000,-8.762249,0.053947,2.244401
1.030000,-8.770187,0.072047,2.202219
1.050000,-8.773107,0.087424,2.161105
1.070000,-8.771083,0.104537,2.119180
1.090000,-8.762707,0.123885,2.076095
1.110000,-8.745928,0.142792,2.033386
1.130000,-8.728040,0.159918,1.994482
1.150000,-8.716912,0.174637,1.960343
1.170000,-8.713473,0.190085,1.927224
1.190000,-8.718516,0.210594,1.891618
1.210000,-8.730194,0.239990,1.853687
1.230000,-8.740374,0.275829,1.813693
1.250000,-8.739542,0.310355,1.772608
1.270000,-8.727837,0.337857,1.728881
1.290000,-8.715466,0.357799,1.685355
1.310000,-8.702772,0.375053,1.642299
1.330000,-8.687179,0.392118,1.601353
1.350000,-8.673924,0.411441,1.564028
1.370000,-8.669077,0.436244,1.531195
1.390000,-8.665198,0.470285,1.501027
1.410000,-8.655284,0.509722,1.473240
1.430000,-8.643250,0.549005,1.442236
1.450000,-8.633784,0.586800,1.406342
1.470000,-8.624485,0.621303,1.371982
1.490000,-8.612363,0.654466,1.344298
1.510000,-8.596153,0.689628,1.317498
1.530000,-8.576768,0.726977,1.286265
1.550000,-8.557281,0.761984,1.250630
1.570000,-8.537802,0.794453,1.212215
1.590000,-8.518037,0.827364,1.170779
1.610000,-8.496743,0.862641,1.126372
1.630000,-8.471660,0.902856,1.074561
1.650000,-8.449026,0.948878,1.013404
1.670000,-8.431563,0.996694,0.948794
1.690000,-8.416104,1.040635,0.887125
1.710000,-8.396703,1.077698,0.834246
1.730000,-8.375018,1.106506,0.788143
1.750000,-8.357034,1.129961,0.753110
1.770000,-8.344830,1.154377,0.734845
1.790000,-8.339643,1.184032,0.729077
1.810000,-8.349930,1.217813,0.720170
1.830000,-8.373129,1.244034,0.710446
1.850000,-8.380887,1.264321,0.721470
1.870000,-8.373455,1.284561,0.749031
1.890000,-8.363705,1.306874,0.753147
1.910000,-8.335734,1.330329,0.723965
1.930000,-8.264607,1.356290,0.688154
1.950000,-8.159169,1.384019,0.644792
1.970000,-8.037003,1.391311,0.533536
1.990000,-7.876142,1.361234,0.315870
2.027000,-7.375119,1.209071,-0.138389
2.047000,-6.919450,0.791446,-0.619765
2.067000,-9.543447,-1.403910,2.417839
2.087000,-7.751977,-4.759789,-4.704737
2.107000,-5.544704,2.793280,-10.639016
2.127000,-4.303271,7.418264,2.757714
2.147000,-4.960698,4.350038,11.120604
2.167000,-4.871293,0.595820,12.682564
2.187000,-2.403117,-6.599784,10.655985
2.207000,-1.593364,-9.274137,7.964428
2.227000,-1.789934,-6.941786,6.339139
2.247000,-1.627935,-4.021578,5.921676
2.267000,0.026184,-1.740374,5.649301
2.287000,0.079762,-1.255820,6.003171
2.307000,-0.241879,-0.905297,6.952951
2.327000,-0.292274,-1.249901,7.523553
2.347000,-0.433566,-2.502245,7.544278
2.367000,-0.415336,-2.518761,8.216255
2.387000,-1.204615,-1.984587,8.864783
2.407000,-1.491787,-2.734746,8.361422
2.427000,-1.337095,-4.653985,7.559819
2.447000,-0.935681,-5.710390,7.126000
2.467000,-0.597145,-5.784744,7.154019
2.487000,-0.473163,-5.797870,7.426775
2.507000,-0.644915,-6.227537,7.607448
2.527000,-0.734000,-6.393430,7.564483
2.547000,-0.685971,-6.101737,7.595716
2.567000,-0.560015,-5.543900,7.814242
2.587000,-0.413405,-5.045922,8.076391
2.607000,-0.344657,-5.075250,8.174124
2.627000,-0.298597,-5.462223,8.116643
2.647000,-0.289911,-5.741995,8.009790
2.667000,-0.358007,-5.840271,7.936490
2.687000,-0.367339,-6.001111,7.875714
2.707000,-0.293140,-6.324452,7.776176
2.727000,-0.238534,-6.626787,7.698778
2.747000,-0.257472,-6.734827,7.666461
2.767000,-0.332701,-6.686935,7.651355
2.787000,-0.385111,-6.627878,7.635735
2.807000,-0.389535,-6.639081,7.632539
2.827000,-0.374284,-6.691281,7.629897
2.847000,-0.362798,-6.741362,7.615484
2.867000,-0.376380,-6.762111,7.592281
2.887000,-0.407462,-6.765206,7.559793
2.907000,-0.434829,-6.814614,7.524023
2.927000,-0.453606,-6.912744,7.489221
2.947000,-0.473655,-6.986588,7.464698
2.967000,-0.489620,-7.020362,7.447837
2.987000,-0.505064,-7.038423,7.424550
3.007000,-0.523769,-7.048288,7.395916
3.027000,-0.535858,-7.082717,7.369822
3.047000,-0.549001,-7.132135,7.348189
3.067000,-0.554903,-7.165925,7.330577
3.087000,-0.556394,-7.181641,7.319401
3.107000,-0.562435,-7.185387,7.313057
3.127000,-0.574167,-7.193896,7.302646
3.147000,-0.585128,-7.218359,7.280945
3.167000,-0.593840,-7.249727,7.253654
3.187000,-0.604234,-7.280895,7.227613
3.207000,-0.611760,-7.321295,7.194445
3.227000,-0.619130,-7.363193,7.162623
3.247000,-0.620721,-7.395820,7.134478
3.267000,-0.620866,-7.418400,7.118699
3.287000,-0.622664,-7.425569,7.104969
3.307000,-0.624285,-7.436918,7.088914
3.327000,-0.629472,-7.456232,7.073779
3.347000,-0.632995,-7.470812,7.061274
3.367000,-0.636622,-7.483996,7.051803
3.387000,-0.642704,-7.498207,7.040802
3.407000,-0.650515,-7.505802,7.025740
3.427000,-0.654044,-7.515646,7.009112
3.447000,-0.658523,-7.529695,6.989964
3.467000,-0.661612,-7.551275,6.970187
3.487000,-0.665375,-7.577986,6.947915
3.507000,-0.667003,-7.601320,6.923608
3.527000,-0.666012,-7.622573,6.899407
3.547000,-0.667203,-7.640188,6.882264
3.567000,-0.669574,-7.650192,6.872155
3.587000,-0.672470,-7.656790,6.864558
3.607000,-0.675669,-7.664137,6.854166
3.627000,-0.676594,-7.674323,6.841417
3.647000,-0.674581,-7.685362,6.830148
3.667000,-0.674816,-7.696644,6.822397
3.687000,-0.677644,-7.702432,6.815865
3.707000,-0.680574,-7.704800,6.807597
3.727000,-0.683819,-7.709778,6.799629
3.747000,-0.686795,-7.718179,6.792834
3.767000,-0.688809,-7.727859,6.785542
3.787000,-0.690106,-7.733997,6.778387
3.807000,-0.691402,-7.739461,6.771485
3.827000,-0.694388,-7.747466,6.763745
3.847000,-0.696829,-7.756318,6.757214
3.867000,-0.698447,-7.761677,6.752746
3.887000,-0.699304,-7.761887,6.749759
3.907000,-0.699656,-7.761889,6.747128
3.927000,-0.701779,-7.766749,6.743412
3.947000,-0.703442,-7.773570,6.738730
3.967000,-0.704317,-7.777698,6.735493
3.987000,-0.705079,-7.778779,6.733860
4.007000,-0.706913,-7.780163,6.731706
4.039000,-0.707985,-7.783720,6.726663
4.059000,-0.710601,-7.790890,6.721784
4.079000,-0.712836,-7.798239,6.718298
4.099000,-0.713744,-7.801623,6.714937
4.119000,-0.714114,-7.803295,6.711293
4.139000,-0.714475,-7.806693,6.708868
4.159000,-0.714772,-7.809761,6.707389
4.179000,-0.715145,-7.810408,6.706466
4.199000,-0.716277,-7.810769,6.705280
4.219000,-0.717494,-7.812044,6.703777
4.239000,-0.718631,-7.813547,6.702468
4.259000,-0.720595,-7.816427,6.700790
4.279000,-0.722492,-7.820320,6.699153
4.299000,-0.723490,-7.822861,6.698248
4.319000,-0.723511,-7.823689,6.698079
4.339000,-0.722893,-7.823696,6.698207
4.359000,-0.722616,-7.823521,6.699349
4.379000,-0.722069,-7.822449,6.700494
4.399000,-0.722079,-7.820840,6.701186
4.419000,-0.722556,-7.820882,6.702059
4.439000,-0.722780,-7.822604,6.702496
4.459000,-0.722517,-7.823340,6.702758
4.479000,-0.721948,-7.822330,6.703367
4.499000,-0.721768,-7.820614,6.704796
4.519000,-0.721278,-7.818851,6.706754
4.539000,-0.718470,-7.818446,6.707512
4.559000,-0.716936,-7.820361,6.706819
4.579000,-0.718170,-7.822801,6.705184
4.599000,-0.721810,-7.824658,6.703096
4.619000,-0.727832,-7.825129,6.701631
4.639000,-0.732477,-7.826611,6.699642
4.659000,-0.734346,-7.831171,6.696843
4.679000,-0.734712,-7.836270,6.694811
4.699000,-0.733590,-7.837805,6.695222
4.719000,-0.731641,-7.834619,6.697179
4.739000,-0.731172,-7.829729,6.699101
4.759000,-0.733173,-7.825968,6.700058
4.779000,-0.734150,-7.824932,6.700023
4.799000,-0.734589,-7.826303,6.700515
4.819000,-0.733085,-7.828699,6.697243
4.839000,-0.734828,-7.831075,6.690533
4.859000,-0.740097,-7.835476,6.683219
4.879000,-0.744500,-7.845587,6.675954
4.899000,-0.748116,-7.858374,6.668499
4.919000,-0.752199,-7.866524,6.662220
4.939000,-0.754852,-7.867634,6.658517
4.959000,-0.753720,-7.864830,6.658107
4.979000,-0.751546,-7.860330,6.660264
4.999000,-0.751644,-7.854846,6.663476
5.019000,-0.752172,-7.851260,6.665172
5.039000,-0.751977,-7.852785,6.664600
5.059000,-0.753076,-7.858294,6.662501
5.079000,-0.752896,-7.864681,6.658748
5.099000,-0.752501,-7.870621,6.654410
5.119000,-0.751728,-7.872600,6.653730
5.139000,-0.751130,-7.868477,6.656266
5.159000,-0.750945,-7.864731,6.658776
5.179000,-0.750977,-7.862483,6.659537
5.199000,-0.750506,-7.860041,6.659333
5.219000,-0.749921,-7.861503,6.657574
5.239000,-0.748191,-7.869773,6.653319
5.259000,-0.748108,-7.877722,6.647695
5.279000,-0.748863,-7.880180,6.642725
5.299000,-0.748868,-7.882350,6.638642
5.319000,-0.749448,-7.885743,6.635726
5.339000,-0.751338,-7.887475,6.633461
5.359000,-0.755581,-7.877864,6.634189
5.379000,-0.754034,-7.881637,6.631174
5.399000,-0.755137,-7.888222,6.625962
5.419000,-0.752709,-7.900487,6.619054
5.439000,-0.754519,-7.904202,6.616071
5.459000,-0.755474,-7.899978,6.616277
5.479000,-0.754407,-7.898431,6.615117
5.499000,-0.753280,-7.897785,6.614184
5.519000,-0.751828,-7.895086,6.615726
5.539000,-0.751636,-7.890428,6.617540
5.559000,-0.751661,-7.884571,6.617661
5.579000,-0.751160,-7.884925,6.615337
5.599000,-0.749107,-7.890088,6.611050
5.619000,-0.749613,-7.897833,6.605274
5.639000,-0.750831,-7.908135,6.600153
5.659000,-0.751439,-7.914670,6.595468
5.679000,-0.750844,-7.917453,6.591259
5.699000,-0.750997,-7.917503,6.588865
5.719000,-0.751699,-7.917025,6.586950
5.739000,-0.750599,-7.921269,6.583042
5.759000,-0.755040,-7.925183,6.579413
5.779000,-0.755965,-7.927908,6.575533
5.799000,-0.758222,-7.930415,6.572937
5.819000,-0.760527,-7.931676,6.570749
5.839000,-0.763289,-7.936659,6.568656
5.859000,-0.763318,-7.938600,6.565889
5.879000,-0.761239,-7.934894,6.563676
5.899000,-0.760881,-7.941042,6.559020
5.919000,-0.760335,-7.945740,6.554721
5.939000,-0.758765,-7.947254,6.552142
5.959000,-0.757833,-7.948227,6.549827
5.979000,-0.758754,-7.947873,6.547033
5.999000,-0.763066,-7.947618,6.547140
6.019000,-0.763815,-7.947606,6.545641
6.051000,-0.764030,-7.949700,6.542267
6.071000,-0.765823,-7.951438,6.538280
6.091000,-0.767885,-7.953758,6.534955
6.111000,-0.769472,-7.956916,6.531783
6.131000,-0.770659,-7.961719,6.528499
6.151000,-0.770662,-7.962882,6.524864
6.171000,-0.770641,-7.964225,6.521458
6.191000,-0.773086,-7.965507,6.517990
6.211000,-0.773471,-7.969673,6.513934
6.231000,-0.771938,-7.974874,6.509990
6.251000,-0.771042,-7.979617,6.505727
6.271000,-0.772262,-7.982301,6.502105
6.291000,-0.772991,-7.983546,6.498375
6.311000,-0.774047,-7.985185,6.494252
6.331000,-0.776339,-7.989035,6.490194
6.351000,-0.777242,-7.992343,6.485650
6.371000,-0.775671,-7.995187,6.481654
6.391000,-0.776054,-7.997692,6.477770
6.411000,-0.777488,-7.999213,6.474452
6.431000,-0.778380,-8.002540,6.470376
6.451000,-0.777731,-8.004850,6.465671
6.471000,-0.777615,-8.007330,6.461061
6.491000,-0.778506,-8.011460,6.457047
6.511000,-0.779795,-8.016028,6.452524
6.531000,-0.780855,-8.019856,6.447662
6.551000,-0.781115,-8.022928,6.443782
6.571000,-0.781061,-8.026161,6.440301
6.591000,-0.780577,-8.027949,6.435968
6.611000,-0.781175,-8.032592,6.430506
6.631000,-0.781455,-8.036206,6.426152
6.651000,-0.783720,-8.038995,6.424092
6.671000,-0.786801,-8.040318,6.423633
6.691000,-0.788605,-8.038661,6.423992
6.711000,-0.789482,-8.035703,6.424228
6.731000,-0.790589,-8.033516,6.423240
6.751000,-0.790393,-8.035039,6.421185
6.771000,-0.790533,-8.036450,6.419749
6.791000,-0.790936,-8.037704,6.418926
6.811000,-0.789683,-8.037461,6.418111
6.831000,-0.791267,-8.035904,6.417808
6.851000,-0.792428,-8.036733,6.418177
6.871000,-0.792572,-8.038918,6.417993
6.891000,-0.792931,-8.041200,6.417115
6.911000,-0.793716,-8.041712,6.415816
6.931000,-0.794183,-8.042530,6.414721
6.951000,-0.794142,-8.042598,6.414331
6.971000,-0.793000,-8.042114,6.414424
6.991000,-0.792803,-8.040846,6.413966
7.011000,-0.792943,-8.040715,6.412842
7.031000,-0.793394,-8.041831,6.411729
7.051000,-0.793313,-8.043366,6.411250
7.071000,-0.792275,-8.045773,6.410081
7.091000,-0.790912,-8.047556,6.408541
7.111000,-0.791096,-8.048388,6.407758
7.131000,-0.792737,-8.047894,6.406983
7.151000,-0.792735,-8.047740,6.406887
7.171000,-0.792684,-8.048210,6.406264
7.191000,-0.793233,-8.049155,6.405480
7.211000,-0.792819,-8.050665,6.404201
7.231000,-0.793414,-8.051059,6.402935
7.251000,-0.794554,-8.051185,6.401753
7.271000,-0.795514,-8.051908,6.400392
7.291000,-0.795340,-8.055473,6.397847
7.311000,-0.794833,-8.057015,6.395831
7.331000,-0.796007,-8.057058,6.394481
7.351000,-0.795780,-8.057029,6.391325
7.371000,-0.796728,-8.055443,6.386572
7.391000,-0.798913,-8.060337,6.382226
7.411000,-0.799806,-8.071168,6.379001
7.431000,-0.800858,-8.075020,6.376072
7.451000,-0.801852,-8.064659,6.374656
7.471000,-0.802692,-8.060795,6.376463
7.491000,-0.802973,-8.054982,6.386416
7.511000,-0.801455,-8.053728,6.396628
7.531000,-0.799953,-8.057898,6.398933
7.551000,-0.798657,-8.060470,6.397600
7.571000,-0.797614,-8.064332,6.398100
7.591000,-0.796844,-8.064038,6.401085
7.611000,-0.796681,-8.056613,6.405117
7.631000,-0.793263,-8.047801,6.408917
7.651000,-0.791172,-8.042765,6.412177
7.671000,-0.792310,-8.043812,6.413585
7.691000,-0.792480,-8.047434,6.413949
7.711000,-0.791594,-8.048363,6.413926
7.731000,-0.789472,-8.047846,6.414094
7.751000,-0.789215,-8.047142,6.414764
7.771000,-0.789774,-8.048361,6.415380
7.791000,-0.789250,-8.049136,6.414888
7.811000,-0.789283,-8.049975,6.414090
7.831000,-0.789578,-8.050208,6.413371
7.851000,-0.789440,-8.050008,6.413546
7.871000,-0.789231,-8.050959,6.413671
7.891000,-0.789766,-8.052570,6.413268
7.911000,-0.789577,-8.054453,6.412294
7.931000,-0.789822,-8.055766,6.411330
7.951000,-0.789178,-8.056013,6.411070
7.971000,-0.788780,-8.057119,6.410861
7.991000,-0.788913,-8.057137,6.411157
8.011000,-0.789835,-8.055717,6.411329
8.031000,-0.790244,-8.054408,6.411572
