accel_time_list,accel_x_list,accel_y_list,accel_z_list
0.410000,-1.987187,-3.088520,-0.696713
0.430000,-1.649605,-2.507926,-1.035492
0.450000,-1.477224,-2.036846,-1.218700
0.470000,-1.654507,-1.842143,-1.193957
0.490000,-2.152536,-2.009019,-1.087067
0.510000,-2.807856,-2.582659,-1.017707
0.530000,-3.530177,-3.622602,-0.893361
0.550000,-4.299115,-5.127668,-0.711291
0.570000,-5.077380,-6.823910,-0.470854
0.590000,-5.653997,-8.175209,-0.216849
0.610000,-5.972088,-9.206945,-0.008345
0.630000,-6.016599,-10.067623,0.119001
0.650000,-5.801460,-10.693892,0.222233
0.670000,-5.416082,-11.042512,0.334372
0.690000,-4.946662,-11.173409,0.426932
0.710000,-4.447495,-11.149566,0.511415
0.730000,-3.936796,-11.000101,0.597927
0.750000,-3.436912,-10.762830,0.707425
0.770000,-2.987861,-10.534594,0.839065
0.790000,-2.629946,-10.364751,0.978165
0.810000,-2.367738,-10.258094,1.123728
0.830000,-2.153261,-10.184499,1.275468
0.850000,-1.982498,-10.159908,1.446086
0.870000,-1.879318,-10.260988,1.617618
0.890000,-1.863049,-10.501554,1.767391
0.910000,-1.942843,-10.834774,1.898367
0.930000,-2.110714,-11.159909,2.001635
0.950000,-2.333262,-11.425756,2.076893
0.970000,-2.565050,-11.584035,2.109400
0.990000,-2.751493,-11.576059,2.109826
1.010000,-2.859909,-11.388256,2.093734
1.030000,-2.900410,-11.058517,2.063452
1.050000,-2.900114,-10.611136,2.013325
1.070000,-2.876458,-10.045159,1.947235
1.090000,-2.847115,-9.372990,1.877343
1.110000,-2.830555,-8.623832,1.814131
1.130000,-2.856368,-7.890504,1.757891
1.150000,-2.932029,-7.300488,1.711023
1.170000,-3.041649,-6.968046,1.683542
1.190000,-3.181467,-6.976416,1.693961
1.210000,-3.354101,-7.294428,1.740682
1.230000,-3.529512,-7.788617,1.785498
1.250000,-3.653611,-8.269376,1.838907
1.270000,-3.718490,-8.710580,1.918495
1.290000,-3.766804,-9.173070,1.999929
1.310000,-3.789201,-9.646624,2.062009
1.330000,-3.752590,-10.079674,2.112083
1.350000,-3.656414,-10.411723,2.159198
1.370000,-3.509893,-10.598253,2.201832
1.390000,-3.335033,-10.651022,2.240129
1.410000,-3.152931,-10.601997,2.280339
1.430000,-2.980522,-10.509246,2.329788
1.450000,-2.826370,-10.423547,2.389888
1.470000,-2.687852,-10.378310,2.444125
1.490000,-2.560648,-10.344870,2.482043
1.510000,-2.441259,-10.276193,2.510933
1.530000,-2.338663,-10.168717,2.543195
1.550000,-2.270809,-10.099384,2.578432
1.570000,-2.241203,-10.137698,2.614501
1.590000,-2.258566,-10.281663,2.636619
1.610000,-2.338417,-10.471699,2.642223
1.630000,-2.464432,-10.596852,2.638205
1.650000,-2.594585,-10.612778,2.629664
1.670000,-2.692622,-10.533712,2.612212
1.690000,-2.744628,-10.388434,2.581778
1.710000,-2.758831,-10.188939,2.544667
1.730000,-2.755032,-9.942077,2.510957
1.750000,-2.748521,-9.656981,2.482006
1.770000,-2.737273,-9.339745,2.448413
1.790000,-2.732846,-9.026838,2.412129
1.810000,-2.755219,-8.746113,2.376495
1.830000,-2.806616,-8.517920,2.354943
1.850000,-2.856763,-8.338116,2.345613
1.870000,-2.889167,-8.218543,2.350430
1.890000,-2.914410,-8.176867,2.368210
1.910000,-2.945094,-8.236315,2.398481
1.930000,-2.984991,-8.428089,2.436178
1.950000,-3.037685,-8.737298,2.483752
1.970000,-3.101641,-9.113274,2.549282
1.990000,-3.189330,-9.526188,2.620147
2.010000,-3.268596,-9.918205,2.675376
2.030000,-3.303678,-10.230825,2.726252
2.050000,-3.293957,-10.404325,2.778870
2.070000,-3.254553,-10.436289,2.828509
2.090000,-3.189870,-10.372670,2.872116
2.110000,-3.107166,-10.257697,2.912991
2.130000,-3.019607,-10.114718,2.950092
2.150000,-2.935950,-9.964684,2.982934
2.170000,-2.856529,-9.834000,3.009865
2.190000,-2.786072,-9.727396,3.027721
2.210000,-2.732008,-9.630965,3.032990
2.230000,-2.682691,-9.515903,3.027647
2.250000,-2.639681,-9.410346,3.020299
2.270000,-2.612460,-9.350775,3.009743
2.290000,-2.599034,-9.343695,2.992411
2.310000,-2.592976,-9.365329,2.963833
2.330000,-2.606715,-9.372908,2.930030
2.350000,-2.658265,-9.383975,2.896881
2.370000,-2.733713,-9.351363,2.852131
2.390000,-2.798018,-9.247515,2.813848
2.426000,-2.831087,-9.085440,2.807103
2.446000,-2.858963,-8.925984,2.802912
2.466000,-2.883396,-8.778716,2.798644
2.486000,-2.897229,-8.633114,2.799588
2.506000,-2.896607,-8.482349,2.812244
2.526000,-2.891909,-8.323595,2.831968
2.546000,-2.892237,-8.171946,2.858330
2.566000,-2.886571,-8.057095,2.894190
2.586000,-2.876503,-8.046599,2.935191
2.606000,-2.894549,-8.203006,2.983728
2.626000,-2.977547,-8.580522,3.038569
2.646000,-3.110172,-9.076298,3.091688
2.666000,-3.233880,-9.562799,3.141235
2.686000,-3.322876,-9.980352,3.180548
2.706000,-3.370695,-10.236761,3.208271
2.726000,-3.368172,-10.293406,3.230973
2.746000,-3.322640,-10.199926,3.251733
2.766000,-3.253172,-10.025562,3.268255
2.786000,-3.175056,-9.814280,3.275389
2.806000,-3.091092,-9.580698,3.271386
2.826000,-3.001840,-9.329232,3.258825
2.846000,-2.915371,-9.066963,3.242687
2.866000,-2.843458,-8.828456,3.224596
2.886000,-2.787677,-8.655111,3.201094
2.906000,-2.742158,-8.518533,3.171119
2.926000,-2.716157,-8.414009,3.141272
2.946000,-2.755735,-8.446984,3.115756
2.966000,-2.862221,-8.605287,3.088814
2.986000,-2.998934,-8.800079,3.060072
3.006000,-3.138086,-8.985916,3.041636
3.026000,-3.272016,-9.141697,3.034045
3.046000,-3.378740,-9.234488,3.032309
3.066000,-3.439795,-9.267948,3.036048
3.086000,-3.452520,-9.253102,3.037400
3.106000,-3.419468,-9.201750,3.034040
3.126000,-3.342385,-9.129680,3.024749
3.146000,-3.236662,-9.042492,3.010341
3.166000,-3.126565,-8.942072,2.991770
3.186000,-3.030827,-8.836337,2.970454
3.206000,-2.961037,-8.764697,2.946825
3.226000,-2.910694,-8.755299,2.915056
3.246000,-2.861653,-8.828012,2.874398
3.266000,-2.812450,-9.004787,2.827115
3.286000,-2.839796,-9.332370,2.781299
3.306000,-2.968833,-9.757417,2.720860
3.326000,-3.133851,-10.121996,2.655724
3.346000,-3.280099,-10.342101,2.604726
3.366000,-3.411376,-10.435595,2.560238
3.386000,-3.523501,-10.435408,2.505642
3.406000,-3.587218,-10.356717,2.447055
3.426000,-3.608852,-10.210125,2.389514
3.446000,-3.610633,-9.997207,2.329051
3.466000,-3.601301,-9.709153,2.262546
3.486000,-3.573335,-9.335686,2.191869
3.506000,-3.522430,-8.882731,2.123742
3.526000,-3.459268,-8.385636,2.064357
3.546000,-3.398914,-7.898472,2.013767
3.566000,-3.358177,-7.484034,1.970067
3.586000,-3.330197,-7.190563,1.934152
3.606000,-3.306955,-7.082910,1.909390
3.626000,-3.289150,-7.237824,1.901981
3.646000,-3.309523,-7.736223,1.899395
3.666000,-3.377305,-8.497426,1.887168
3.686000,-3.428488,-9.280720,1.869625
3.706000,-3.463213,-10.085384,1.844712
3.726000,-3.481589,-10.862420,1.817566
3.746000,-3.489973,-11.430538,1.793355
3.766000,-3.488892,-11.655525,1.772854
3.786000,-3.477458,-11.584930,1.753670
3.806000,-3.455343,-11.320876,1.735007
3.826000,-3.427670,-10.940478,1.715732
3.846000,-3.400849,-10.480186,1.692985
3.866000,-3.381932,-9.958790,1.663529
3.886000,-3.371314,-9.379679,1.629603
3.906000,-3.365739,-8.754226,1.601481
3.926000,-3.369580,-8.128964,1.582709
3.946000,-3.400969,-7.626181,1.567295
3.966000,-3.491457,-7.384225,1.566233
3.986000,-3.643704,-7.411920,1.577840
4.006000,-3.818883,-7.607255,1.599643
4.026000,-3.986010,-7.896406,1.626438
4.046000,-4.154004,-8.313824,1.660865
4.066000,-4.289035,-8.783928,1.702903
4.086000,-4.355321,-9.161234,1.754577
4.106000,-4.360220,-9.403253,1.809620
4.126000,-4.318995,-9.536237,1.857387
4.146000,-4.226924,-9.568368,1.890254
4.166000,-4.074937,-9.522249,1.910858
4.186000,-3.870056,-9.434005,1.928322
4.206000,-3.648490,-9.357082,1.946105
4.226000,-3.441024,-9.331785,1.956794
4.246000,-3.254935,-9.403565,1.955504
4.266000,-3.111900,-9.534039,1.959950
4.286000,-2.995675,-9.579162,1.969121
4.306000,-2.920516,-9.587200,1.984631
4.326000,-2.888649,-9.693126,1.996001
4.346000,-2.914111,-9.928734,1.983838
4.366000,-3.033285,-10.205477,1.951709
4.386000,-3.218644,-10.407358,1.905432
4.406000,-3.438221,-10.506651,1.851517
4.448000,-3.583220,-10.365969,1.791026
4.468000,-3.685763,-10.108895,1.729239
4.488000,-3.765529,-9.748785,1.674715
4.508000,-3.829646,-9.303599,1.629555
4.528000,-3.874357,-8.787358,1.590308
4.548000,-3.901408,-8.226919,1.558575
4.568000,-3.922575,-7.698087,1.533205
4.588000,-3.952850,-7.280448,1.515121
4.608000,-4.013614,-7.023836,1.518107
4.628000,-4.128324,-6.970503,1.553311
4.648000,-4.300387,-7.140443,1.604455
4.668000,-4.479327,-7.453303,1.653731
4.688000,-4.629635,-7.845123,1.711566
4.708000,-4.772586,-8.295931,1.776889
4.728000,-4.897377,-8.842463,1.834955
4.748000,-4.925992,-9.406672,1.885463
4.768000,-4.857052,-9.851171,1.936658
4.788000,-4.739305,-10.099552,1.984875
4.808000,-4.585995,-10.178231,2.024995
4.828000,-4.382200,-10.144868,2.058103
4.848000,-4.128237,-10.035338,2.088704
4.868000,-3.862368,-9.891640,2.118534
4.888000,-3.639450,-9.768802,2.145948
4.908000,-3.467149,-9.680515,2.166075
4.928000,-3.321848,-9.603426,2.179505
4.948000,-3.196398,-9.523414,2.191310
4.968000,-3.093666,-9.484994,2.203467
4.988000,-3.034654,-9.544279,2.213041
5.008000,-3.053574,-9.692624,2.217201
5.028000,-3.159435,-9.873127,2.208589
5.048000,-3.296458,-9.973971,2.193433
5.068000,-3.432541,-9.987320,2.180909
5.088000,-3.561713,-9.972227,2.164934
5.108000,-3.681438,-9.949801,2.137505
5.128000,-3.793549,-9.890837,2.109156
5.148000,-3.898779,-9.751758,2.086839
5.168000,-3.989466,-9.534261,2.064835
5.188000,-4.065592,-9.251470,2.036493
5.208000,-4.120414,-8.903370,2.008807
5.228000,-4.148004,-8.528209,1.992615
5.248000,-4.150795,-8.174040,1.984199
5.268000,-4.153077,-7.892414,1.978348
5.288000,-4.175270,-7.714142,1.978376
5.308000,-4.203051,-7.618980,1.989897
5.328000,-4.211421,-7.603899,2.017950
5.348000,-4.196588,-7.707340,2.047010
5.368000,-4.192508,-7.954484,2.082705
5.388000,-4.242199,-8.366083,2.138416
5.408000,-4.338563,-8.791826,2.196382
5.428000,-4.431200,-9.162332,2.242188
5.448000,-4.436883,-9.523682,2.271714
5.468000,-4.350684,-9.840316,2.291820
5.488000,-4.222504,-10.058159,2.310925
5.508000,-4.088456,-10.176341,2.325861
5.528000,-3.962455,-10.214499,2.339268
5.548000,-3.845588,-10.199312,2.356802
5.568000,-3.728269,-10.142151,2.371099
5.588000,-3.610256,-10.055317,2.374615
5.608000,-3.496413,-9.953248,2.370550
5.628000,-3.402477,-9.828641,2.365556
5.648000,-3.345443,-9.688346,2.363208
5.668000,-3.323137,-9.575921,2.360058
5.688000,-3.329605,-9.552828,2.352699
5.708000,-3.388512,-9.620078,2.336171
5.728000,-3.509576,-9.728385,2.303021
5.748000,-3.645574,-9.781397,2.275282
5.768000,-3.799517,-9.749770,2.261591
5.788000,-4.005216,-9.683273,2.243163
5.808000,-4.200463,-9.594810,2.212189
5.828000,-4.308983,-9.463490,2.184511
5.848000,-4.353705,-9.275119,2.171073
5.868000,-4.376778,-9.037139,2.163488
5.888000,-4.397775,-8.783461,2.155474
5.908000,-4.417787,-8.536185,2.146935
5.928000,-4.430521,-8.324670,2.141767
5.948000,-4.427270,-8.159575,2.140432
5.968000,-4.413641,-8.027346,2.139485
5.988000,-4.401154,-7.925703,2.141366
6.008000,-4.394517,-7.867774,2.153569
6.028000,-4.399621,-7.893525,2.174120
6.048000,-4.420958,-8.048392,2.195014
6.068000,-4.457288,-8.336621,2.212476
6.088000,-4.493745,-8.679506,2.236666
6.108000,-4.527010,-9.013595,2.270706
6.128000,-4.564752,-9.328910,2.304041
6.148000,-4.583340,-9.624328,2.332191
6.168000,-4.565965,-9.841610,2.355748
6.188000,-4.525737,-9.938763,2.378101
6.208000,-4.475647,-9.938394,2.402728
6.228000,-4.426449,-9.883032,2.432018
6.248000,-4.379403,-9.774864,2.460817
6.268000,-4.332938,-9.608818,2.486422
6.288000,-4.287159,-9.386324,2.510650
6.308000,-4.249527,-9.125216,2.530714
6.328000,-4.221943,-8.840001,2.549521
6.348000,-4.202431,-8.564237,2.569124
6.368000,-4.191158,-8.360960,2.591456
6.388000,-4.204410,-8.310171,2.620073
6.408000,-4.269353,-8.438826,2.657436
6.428000,-4.391238,-8.689784,2.692275
