gyro_time_list,gyro_x_list,gyro_y_list,gyro_z_list
4.314,-0.057822,0.032375,0.00906
4.334,-0.059421,0.032375,0.010459
4.354,-0.057689,0.034418,0.012835
4.374,-0.054791,0.036739,0.016355
4.394,-0.052465,0.039091,0.020494
4.414,-0.05207,0.041104,0.024365
4.434,-0.053349,0.042256,0.027665
4.454,-0.056059,0.042753,0.030474
4.474,-0.058656,0.043096,0.033178
4.494,-0.060308,0.043743,0.035569
4.514,-0.060846,0.04483,0.037355
4.534,-0.060571,0.045948,0.038543
4.554,-0.060339,0.046944,0.039116
4.574,-0.060826,0.047694,0.039492
4.594,-0.061729,0.048335,0.039871
4.614,-0.061952,0.049046,0.040889
4.634,-0.06163,0.049776,0.042557
4.654,-0.061069,0.050387,0.044434
4.674,-0.060504,0.050836,0.046037
4.694,-0.059882,0.051226,0.047139
4.714,-0.059256,0.051732,0.047855
4.734,-0.057939,0.052083,0.048347
4.754,-0.055463,0.052199,0.04896
4.774,-0.052414,0.052256,0.049734
4.794,-0.049417,0.05241,0.050268
4.814,-0.046548,0.052557,0.050236
4.834,-0.043588,0.052639,0.049575
4.854,-0.040267,0.052715,0.048482
4.874,-0.03646,0.052753,0.047159
4.894,-0.032412,0.05278,0.045758
4.914,-0.02869,0.052805,0.044286
4.934,-0.025399,0.052762,0.042622
4.954,-0.022357,0.052685,0.040887
4.974,-0.019385,0.052542,0.039074
4.994,-0.016556,0.052407,0.0372
5.014,-0.013976,0.052187,0.035256
5.034,-0.011784,0.05187,0.033231
5.054,-0.010137,0.051531,0.031029
5.074,-0.008866,0.051186,0.028647
5.094,-0.007704,0.050837,0.026135
5.114,-0.00669,0.050447,0.023655
5.134,-0.006041,0.050104,0.02122
5.154,-0.005648,0.049786,0.018857
5.174,-0.005383,0.04951,0.016619
5.194,-0.005262,0.049279,0.014577
5.214,-0.005269,0.049076,0.012714
5.234,-0.005329,0.048929,0.011061
5.254,-0.005318,0.048859,0.00973
5.274,-0.005206,0.048841,0.008686
5.294,-0.005137,0.048871,0.007856
5.314,-0.005238,0.048948,0.007183
5.334,-0.005335,0.04905,0.006652
5.354,-0.005342,0.049138,0.006307
5.374,-0.005413,0.049193,0.006056
5.394,-0.005709,0.049251,0.005866
5.414,-0.00615,0.049321,0.005737
5.434,-0.006415,0.049386,0.005705
5.454,-0.006552,0.049549,0.00572
5.474,-0.006831,0.049665,0.005711
5.494,-0.007446,0.049621,0.005677
5.514,-0.008322,0.049405,0.00568
5.534,-0.009137,0.048951,0.005661
5.554,-0.009911,0.048388,0.005629
5.574,-0.010782,0.047829,0.005542
5.594,-0.01167,0.047331,0.005382
5.614,-0.012479,0.046835,0.005147
5.634,-0.013135,0.046334,0.004933
5.654,-0.013604,0.045859,0.004769
5.674,-0.013972,0.045381,0.004663
5.694,-0.014494,0.044892,0.004553
5.714,-0.015241,0.044364,0.004372
5.734,-0.015995,0.043883,0.004193
5.754,-0.016627,0.0435,0.004145
5.774,-0.017153,0.043148,0.00429
5.794,-0.017802,0.04278,0.004662
5.814,-0.018696,0.04235,0.005119
5.834,-0.019764,0.041841,0.005523
5.854,-0.020963,0.041314,0.005743
5.874,-0.022177,0.040856,0.005828
5.894,-0.023188,0.040449,0.005722
5.914,-0.02414,0.040092,0.005506
5.934,-0.025193,0.039748,0.005236
5.954,-0.026475,0.039316,0.005001
5.974,-0.028035,0.03879,0.004838
5.994,-0.029993,0.03817,0.004799
6.014,-0.032239,0.037403,0.00484
6.034,-0.034596,0.036603,0.005016
6.054,-0.036822,0.035855,0.005354
6.074,-0.038788,0.035137,0.005914
6.094,-0.040542,0.034472,0.006727
6.114,-0.042138,0.033867,0.007769
6.134,-0.043534,0.03333,0.009002
6.154,-0.044672,0.032804,0.010403
6.174,-0.045697,0.032279,0.011899
6.194,-0.046866,0.031639,0.013362
6.214,-0.048293,0.030868,0.014579
6.234,-0.049802,0.030121,0.015563
6.254,-0.051016,0.029406,0.016407
6.274,-0.051812,0.028637,0.017234
6.294,-0.052298,0.027691,0.018041
6.807,-0.051848,0.026111,0.03106
6.827,-0.050986,0.023339,0.041546
6.847,-0.049917,0.019461,0.048482
6.867,-0.050388,0.015564,0.051385
6.887,-0.054068,0.01118,0.049883
6.907,-0.06128,0.006161,0.044556
6.927,-0.070345,0.000578,0.037137
6.947,-0.079157,-0.005845,0.028283
6.967,-0.086511,-0.013001,0.017691
6.987,-0.092769,-0.020458,0.005196
7.007,-0.098125,-0.028354,-0.009151
7.027,-0.10286,-0.03674,-0.025737
7.047,-0.10655,-0.045895,-0.044796
7.067,-0.106921,-0.055382,-0.065904
7.087,-0.10151,-0.064461,-0.088105
7.107,-0.090183,-0.073235,-0.110689
7.127,-0.075474,-0.083013,-0.133924
7.147,-0.060801,-0.094261,-0.158681
7.167,-0.047979,-0.106265,-0.185073
7.187,-0.03655,-0.118288,-0.213152
7.207,-0.025334,-0.130466,-0.242805
7.227,-0.013855,-0.142911,-0.274028
7.247,-0.002214,-0.155536,-0.306858
7.267,0.009735,-0.168588,-0.34112
7.287,0.022126,-0.182427,-0.377213
7.307,0.034991,-0.197434,-0.415505
7.327,0.048214,-0.21518,-0.456137
7.347,0.062321,-0.235707,-0.499887
7.367,0.076642,-0.258158,-0.547222
7.387,0.086734,-0.282102,-0.597832
7.407,0.088616,-0.306659,-0.653939
7.427,0.082002,-0.32993,-0.712273
7.447,0.06692,-0.350846,-0.769397
7.467,0.04063,-0.367217,-0.82621
7.487,0.006207,-0.375483,-0.870561
7.507,-0.023655,-0.371957,-0.8807
7.527,-0.036209,-0.356091,-0.849931
7.547,-0.011291,-0.322561,-0.795769
7.567,0.065582,-0.269166,-0.751431
7.587,0.152136,-0.208181,-0.737684
7.607,0.236131,-0.152492,-0.758985
7.627,0.191618,-0.076098,-0.799364
7.647,0.072253,0.035056,-0.843022
7.667,-0.060605,0.158523,-0.827763
7.687,0.089493,0.055344,-0.695733
7.707,0.252942,-0.098153,-0.790312
7.727,0.056061,-0.096753,-0.920601
7.747,-0.085362,0.071297,-1.009965
7.767,0.138727,0.177435,-0.931112
7.787,0.092658,0.183137,-0.960884
7.807,-0.148676,0.090007,-0.758171
7.827,-0.400553,0.003309,-0.606895
7.847,-0.386653,-0.055214,-0.48587
7.867,-0.146156,-0.063011,-0.371893
7.887,0.150669,-0.041274,-0.299105
7.907,0.325069,-0.039014,-0.227368
7.927,0.18553,-0.057311,-0.171696
7.947,-0.041401,-0.077646,-0.10519
7.967,-0.104578,-0.081457,-0.063387
7.987,-0.029489,-0.071964,-0.049132
8.007,0.048771,-0.062072,-0.062085
8.027,0.081888,-0.058174,-0.087858
8.047,0.088238,-0.064713,-0.111162
8.067,0.08889,-0.076033,-0.12621
8.087,0.114077,-0.086546,-0.131008
8.107,0.131817,-0.092233,-0.134668
8.127,0.122575,-0.089526,-0.133509
8.147,0.114519,-0.086759,-0.136179
8.167,0.112103,-0.080995,-0.134707
8.187,0.09856,-0.075675,-0.137653
8.207,0.059333,-0.070014,-0.148036
8.227,0.004673,-0.064413,-0.162661
8.247,-0.045291,-0.059673,-0.177076
8.267,-0.081532,-0.056354,-0.190781
8.287,-0.107252,-0.05409,-0.203311
8.307,-0.131349,-0.051677,-0.214599
8.327,-0.163047,-0.048959,-0.224634
8.347,-0.195396,-0.046057,-0.230582
8.367,-0.214295,-0.042913,-0.234669
8.387,-0.222702,-0.038963,-0.238686
8.407,-0.225354,-0.033637,-0.244287
8.427,-0.228793,-0.027611,-0.2503
8.447,-0.234083,-0.022036,-0.256418
8.467,-0.23811,-0.018481,-0.262082
8.487,-0.236767,-0.016276,-0.264096
8.507,-0.228988,-0.014382,-0.262445
8.527,-0.217549,-0.012472,-0.259127
8.547,-0.207607,-0.011337,-0.255391
8.567,-0.199558,-0.010926,-0.250673
8.587,-0.19016,-0.010122,-0.244776
8.607,-0.178273,-0.008806,-0.238523
8.627,-0.164564,-0.007528,-0.232543
8.647,-0.151859,-0.006484,-0.226821
8.667,-0.143189,-0.005498,-0.221076
8.687,-0.137032,-0.003985,-0.214989
8.707,-0.12874,-0.002426,-0.208654
8.727,-0.118117,-0.001563,-0.203018
8.747,-0.108016,-0.001398,-0.198095
8.767,-0.102952,-0.001473,-0.194006
8.787,-0.101006,-0.001361,-0.190521
11.9,-0.099965,-0.001184,-0.187152
11.92,-0.098767,-0.000893,-0.183798
11.94,-0.097353,-0.000554,-0.180497
11.96,-0.09563,-0.00035,-0.177366
11.98,-0.094215,-0.00005,-0.174272
12,-0.093148,0.000303,-0.171264
12.02,-0.092157,0.000548,-0.168454
12.04,-0.091049,0.000855,-0.165648
12.06,-0.089961,0.001154,-0.162867
12.08,-0.08893,0.001416,-0.160255
12.1,-0.087928,0.001676,-0.157768
12.12,-0.087188,0.001938,-0.15537
12.14,-0.086607,0.002168,-0.153022
12.16,-0.085816,0.002378,-0.150742
12.18,-0.085045,0.002695,-0.148482
12.2,-0.084373,0.002956,-0.146328
12.22,-0.083725,0.003127,-0.144263
12.24,-0.083166,0.003283,-0.142279
12.26,-0.082561,0.003514,-0.140321
12.28,-0.08206,0.003705,-0.138458
12.3,-0.08151,0.003902,-0.136642
12.32,-0.080928,0.00408,-0.134872
12.34,-0.080285,0.004296,-0.133091
12.36,-0.079472,0.004512,-0.131327
12.38,-0.07896,0.004649,-0.129659
12.4,-0.078288,0.004862,-0.127944
12.42,-0.077459,0.005231,-0.125986
12.44,-0.076894,0.005629,-0.123906
12.46,-0.076345,0.005829,-0.122022
12.48,-0.075811,0.005926,-0.120112
12.5,-0.075765,0.0063,-0.117856
12.52,-0.074453,0.006832,-0.115468
12.54,-0.072745,0.007233,-0.113341
12.56,-0.071929,0.007312,-0.111574
12.58,-0.071208,0.007555,-0.109567
12.6,-0.068656,0.00788,-0.107553
12.62,-0.065336,0.008062,-0.105486
12.64,-0.063036,0.008068,-0.103911
12.66,-0.062166,0.007886,-0.102684
12.68,-0.060615,0.007516,-0.101358
12.7,-0.058495,0.007166,-0.099951
12.72,-0.058001,0.006724,-0.099016
12.74,-0.058577,0.006208,-0.098218
12.76,-0.058072,0.005745,-0.09707
12.78,-0.056022,0.005982,-0.09506
12.8,-0.054487,0.006388,-0.093003
12.82,-0.054159,0.006341,-0.091539
12.84,-0.054798,0.006274,-0.090683
12.86,-0.056891,0.006161,-0.090066
12.88,-0.05728,0.006361,-0.088949
12.9,-0.056504,0.006811,-0.088005
12.92,-0.058264,0.007066,-0.087552
12.94,-0.06119,0.007243,-0.08744
12.96,-0.063719,0.007321,-0.087221
12.98,-0.065243,0.007595,-0.086926
13,-0.067136,0.007934,-0.08652
13.02,-0.069007,0.007853,-0.085999
13.04,-0.072733,0.007451,-0.086094
13.06,-0.074271,0.007339,-0.085819
13.08,-0.074658,0.007477,-0.085504
13.1,-0.07364,0.007376,-0.0852
13.12,-0.07014,0.007525,-0.084298
13.14,-0.066845,0.008057,-0.082986
13.16,-0.064061,0.008343,-0.081522
13.18,-0.061878,0.008148,-0.080281
13.2,-0.059932,0.008067,-0.079048
13.22,-0.058374,0.008211,-0.077883
13.24,-0.057298,0.00827,-0.077113
13.26,-0.056775,0.008132,-0.076827
13.28,-0.056245,0.00802,-0.076383
13.3,-0.055744,0.007996,-0.075797
13.32,-0.055116,0.008029,-0.075234
13.34,-0.055191,0.0081,-0.074653
13.36,-0.05526,0.008047,-0.074196
13.38,-0.054593,0.008098,-0.073525
13.4,-0.054009,0.00814,-0.072888
13.42,-0.053872,0.008205,-0.072196
13.44,-0.053573,0.008343,-0.071408
13.46,-0.053226,0.00856,-0.070619
13.48,-0.053304,0.008689,-0.070077
13.5,-0.053697,0.008724,-0.06976
13.52,-0.053437,0.008913,-0.069245
13.54,-0.053681,0.00916,-0.068699
13.56,-0.053749,0.009422,-0.068264
13.58,-0.053591,0.009875,-0.067741
13.6,-0.053632,0.010193,-0.067374
13.62,-0.05406,0.010519,-0.066795
13.64,-0.054583,0.010815,-0.066351
13.66,-0.05445,0.011113,-0.065967
13.68,-0.054006,0.011303,-0.065624
13.7,-0.05395,0.011567,-0.065324
13.72,-0.054298,0.011835,-0.065046
13.74,-0.054601,0.01194,-0.064737
13.76,-0.055344,0.012076,-0.064476
13.78,-0.056557,0.012289,-0.064256
13.8,-0.057414,0.012382,-0.064071
13.82,-0.057538,0.012447,-0.063834
13.84,-0.057325,0.01262,-0.063535
13.86,-0.057028,0.012792,-0.063238
13.88,-0.056889,0.012912,-0.062981
