accel_time_list,accel_x_list,accel_y_list,accel_z_list
1.352,-9.02614,-2.477999,2.925714
1.372,-8.954314,-2.430115,2.873042
1.392,-8.843276,-2.408553,2.845889
1.412,-8.736614,-2.412151,2.822124
1.432,-8.660462,-2.449775,2.804505
1.452,-8.628973,-2.497286,2.794758
1.472,-8.640664,-2.532309,2.78197
1.492,-8.670541,-2.536319,2.764575
1.512,-8.696465,-2.523649,2.762787
1.532,-8.735593,-2.503157,2.779617
1.552,-8.773387,-2.472127,2.800616
1.572,-8.793776,-2.437759,2.809703
1.592,-8.795846,-2.413841,2.817762
1.612,-8.789275,-2.399918,2.82174
1.632,-8.792994,-2.394666,2.822934
1.652,-8.813563,-2.387342,2.826993
1.672,-8.831161,-2.372874,2.831708
1.692,-8.83434,-2.35906,2.832279
1.712,-8.828447,-2.350546,2.828728
1.732,-8.804972,-2.341667,2.821431
1.752,-8.765371,-2.345266,2.810455
1.772,-8.713131,-2.358855,2.797933
1.792,-8.638609,-2.368936,2.785638
1.812,-8.549462,-2.368992,2.765743
1.832,-8.440836,-2.374331,2.746403
1.852,-8.29502,-2.381704,2.728682
1.872,-8.131722,-2.374553,2.709772
1.892,-7.981314,-2.349337,2.690488
1.912,-7.841523,-2.322932,2.678461
1.932,-7.732255,-2.306768,2.67451
1.952,-7.678796,-2.310186,2.683154
1.972,-7.663032,-2.333864,2.694678
1.992,-7.654771,-2.366543,2.700758
2.012,-7.655651,-2.411446,2.700755
2.032,-7.667643,-2.465336,2.690859
2.052,-7.677492,-2.525655,2.672559
2.072,-7.676948,-2.578548,2.656739
2.092,-7.665512,-2.628865,2.647676
2.112,-7.640178,-2.686042,2.636614
2.132,-7.611446,-2.747208,2.61875
2.152,-7.59654,-2.79198,2.601132
2.172,-7.583232,-2.800302,2.594526
2.192,-7.551604,-2.780351,2.599609
2.212,-7.529276,-2.788685,2.609871
2.232,-7.540862,-2.837186,2.617345
2.252,-7.565845,-2.876029,2.618397
2.272,-7.584907,-2.896353,2.61869
2.292,-7.614121,-2.941487,2.608704
2.312,-7.618885,-3.031435,2.600214
2.332,-7.553427,-3.147864,2.608778
2.352,-7.425486,-3.29667,2.616202
2.372,-7.249598,-3.47492,2.596679
2.392,-7.044703,-3.663994,2.557908
2.412,-6.829333,-3.866451,2.563309
2.432,-6.694146,-4.040825,2.632255
2.452,-6.658151,-4.146156,2.688239
2.472,-6.722129,-4.222387,2.658389
2.492,-6.88388,-4.33115,2.618187
2.512,-7.003002,-4.356399,2.693993
2.532,-7.090846,-4.238363,2.804599
2.552,-7.163869,-4.034513,2.870782
2.572,-7.211776,-3.775392,2.887255
2.592,-7.275127,-3.42522,2.854993
2.612,-7.417199,-0.884971,2.972504
2.632,-8.829432,5.739623,3.601855
2.652,-11.55241,-2.728779,3.997769
2.672,-13.6146,-6.931497,3.831667
2.692,-13.08055,-9.267418,3.780961
2.712,-11.16627,-7.399127,3.907877
2.732,-9.872457,-3.35492,4.096157
2.752,-8.417812,1.120611,4.185055
2.772,-6.692191,2.867217,4.132399
2.792,-5.363839,2.424978,3.963013
2.812,-4.812733,1.563594,3.741852
2.832,-4.649364,0.647538,3.570835
2.852,-4.498646,-0.05557,3.386014
2.872,-4.448432,-0.218699,3.247817
2.892,-4.675571,0.305444,3.256407
2.912,-6.351804,2.788944,3.890554
2.932,-8.197809,4.424655,4.578117
2.952,-8.581242,3.478446,4.544104
2.972,-8.412177,1.57921,4.490017
2.992,-8.122263,0.565824,4.553579
3.012,-7.896447,1.056234,4.661598
3.032,-7.562376,2.216604,4.790895
3.052,-7.171392,3.206242,4.876905
3.072,-6.837711,3.588345,4.869477
3.092,-6.593025,3.571096,4.791658
3.112,-6.459148,3.580322,4.705689
3.132,-6.433102,3.755327,4.651033
3.152,-6.496857,4.001773,4.637774
3.172,-6.608184,4.217598,4.644409
3.192,-6.716631,4.351554,4.651096
3.212,-6.788191,4.409926,4.64654
3.232,-6.809042,4.427758,4.642047
3.252,-6.786769,4.452247,4.653422
3.272,-6.764724,4.492387,4.683165
3.292,-6.75546,4.525297,4.71389
3.312,-6.754169,4.531814,4.72854
3.332,-6.760763,4.530719,4.732772
3.823,-6.770786,4.536688,4.734303
3.843,-6.781482,4.545029,4.735675
3.863,-6.794195,4.551558,4.738808
3.883,-6.805524,4.549384,4.74409
3.903,-6.814114,4.544025,4.751163
3.923,-6.821516,4.541178,4.758891
3.943,-6.825622,4.540652,4.765936
3.963,-6.830336,4.540518,4.771501
3.983,-6.834752,4.538522,4.776863
4.003,-6.837323,4.537155,4.781115
4.023,-6.838649,4.537389,4.785625
4.043,-6.83919,4.538608,4.790211
4.063,-6.838397,4.538782,4.795733
4.083,-6.838381,4.538005,4.801555
4.103,-6.838301,4.537625,4.806931
4.123,-6.839174,4.538358,4.812244
4.143,-6.839386,4.540046,4.817799
4.163,-6.840128,4.54074,4.822845
4.183,-6.840541,4.539635,4.827121
4.203,-6.841163,4.538831,4.830763
4.223,-6.843433,4.539504,4.833898
4.243,-6.846641,4.541078,4.836322
4.263,-6.84987,4.541152,4.838299
4.283,-6.852229,4.540276,4.840692
4.303,-6.853923,4.538949,4.843087
4.323,-6.855548,4.5388,4.845827
4.343,-6.857354,4.538604,4.848516
4.363,-6.859668,4.537652,4.850994
4.383,-6.862036,4.536639,4.85282
4.403,-6.865386,4.535471,4.854948
4.423,-6.868019,4.53507,4.856968
4.443,-6.870781,4.534543,4.858382
4.463,-6.873711,4.532835,4.860057
4.483,-6.875712,4.532189,4.862663
4.503,-6.877473,4.531522,4.865824
4.523,-6.878964,4.529392,4.868931
4.543,-6.880818,4.527551,4.871589
4.563,-6.883018,4.526703,4.874386
4.583,-6.884706,4.525843,4.876894
4.603,-6.885473,4.525339,4.878776
4.623,-6.885088,4.525374,4.88126
4.643,-6.884793,4.52525,4.884085
4.663,-6.884544,4.52513,4.886668
4.683,-6.884377,4.525167,4.888986
4.703,-6.883704,4.52588,4.890983
4.723,-6.88377,4.527129,4.892799
4.743,-6.884118,4.527719,4.89409
4.763,-6.884386,4.528039,4.895253
4.783,-6.884991,4.52874,4.896605
4.803,-6.885408,4.529666,4.898232
4.823,-6.885915,4.529427,4.899424
4.843,-6.886309,4.528956,4.901159
4.863,-6.886529,4.528465,4.902853
4.883,-6.886872,4.527987,4.904331
4.903,-6.887428,4.527882,4.905862
4.923,-6.887908,4.528005,4.907272
4.943,-6.888096,4.527997,4.908565
4.963,-6.888432,4.528179,4.909997
4.983,-6.88876,4.527797,4.911454
5.003,-6.889259,4.527456,4.912961
5.023,-6.889687,4.527184,4.914382
5.043,-6.890221,4.527097,4.91561
5.063,-6.890886,4.526718,4.916758
5.083,-6.891649,4.526435,4.917855
5.103,-6.892339,4.526361,4.918851
5.123,-6.892791,4.526089,4.91993
5.143,-6.893012,4.525627,4.921167
5.163,-6.893419,4.525648,4.922914
5.183,-6.894355,4.525311,4.924375
5.203,-6.895191,4.524465,4.925682
5.223,-6.895693,4.523771,4.927162
5.243,-6.895976,4.523572,4.928613
5.263,-6.896175,4.52351,4.929745
5.283,-6.89637,4.523396,4.931
5.303,-6.896207,4.523414,4.932375
5.323,-6.895797,4.523584,4.933425
5.343,-6.895347,4.524331,4.934106
5.363,-6.895273,4.525138,4.934875
5.383,-6.895079,4.525657,4.935302
5.403,-6.895249,4.526043,4.935964
5.423,-6.895393,4.526421,4.936572
5.443,-6.89544,4.526504,4.937604
5.463,-6.895845,4.526417,4.938794
5.483,-6.896103,4.526236,4.939923
5.503,-6.896383,4.525745,4.941281
5.523,-6.896587,4.524852,4.942793
5.543,-6.896694,4.524184,4.944338
5.563,-6.896585,4.523665,4.945819
5.583,-6.896739,4.523775,4.946974
5.603,-6.897132,4.523788,4.947663
5.623,-6.897114,4.523657,4.948584
5.643,-6.897096,4.523838,4.94952
5.663,-6.897317,4.524042,4.950279
5.683,-6.897608,4.524028,4.951294
5.703,-6.897776,4.523559,4.952442
5.723,-6.897823,4.523502,4.953651
5.743,-6.89787,4.523613,4.954823
5.763,-6.898084,4.523867,4.955745
5.783,-6.898008,4.523807,4.956586
5.803,-6.898005,4.523771,4.957107
6.894,-6.897283,4.515045,4.96502
6.914,-6.9004,4.507794,4.973334
6.934,-6.905329,4.500353,4.977662
6.954,-6.9121,4.492125,4.98106
6.974,-6.916888,4.483547,4.984473
6.994,-6.91885,4.478767,4.983422
7.014,-6.922015,4.479565,4.98195
7.034,-6.924501,4.476308,4.986814
7.054,-6.923802,4.466213,4.995796
7.074,-6.921051,4.456746,5.004783
7.094,-6.918184,4.45252,5.012412
7.114,-6.919008,4.451234,5.019916
7.134,-6.920184,4.447639,5.028303
7.154,-6.918546,4.441446,5.035289
7.174,-6.914315,4.436344,5.040577
7.194,-6.909624,4.434478,5.043754
7.214,-6.908284,4.43421,5.048168
7.234,-6.909064,4.427625,5.054931
7.254,-6.91077,4.420004,5.059616
7.274,-6.913297,4.415069,5.065212
7.294,-6.914482,4.409105,5.070344
7.314,-6.914577,4.402938,5.07533
7.334,-6.91673,4.394367,5.08199
7.354,-6.921496,4.385451,5.08966
7.374,-6.92631,4.377964,5.095626
7.394,-6.929806,4.369882,5.100071
7.414,-6.931592,4.362168,5.104424
7.434,-6.932019,4.355441,5.109237
7.454,-6.930383,4.348398,5.114169
7.474,-6.928907,4.340708,5.11953
7.494,-6.930749,4.331897,5.125149
7.514,-6.934178,4.324682,5.130951
7.534,-6.936543,4.317372,5.136935
7.554,-6.938189,4.310734,5.141255
7.574,-6.939628,4.30433,5.14692
7.594,-6.939783,4.29617,5.153319
7.614,-6.938069,4.289409,5.158576
7.634,-6.935439,4.284702,5.164834
7.654,-6.933362,4.281551,5.170622
7.674,-6.932909,4.278144,5.174941
7.694,-6.934186,4.273407,5.178784
7.714,-6.936167,4.268741,5.183979
7.734,-6.938368,4.263834,5.190198
7.754,-6.939038,4.257779,5.196332
7.774,-6.938337,4.250635,5.203577
7.794,-6.940325,4.242581,5.21209
7.814,-6.94294,4.232932,5.221284
7.834,-6.943828,4.221943,5.230507
7.854,-6.945929,4.210776,5.239805
7.874,-6.947433,4.200559,5.248938
7.894,-6.946457,4.192647,5.257476
7.914,-6.944677,4.18649,5.265523
7.934,-6.942004,4.181831,5.272891
7.954,-6.937347,4.178775,5.279227
7.974,-6.932306,4.17697,5.285116
7.994,-6.928991,4.175303,5.290037
8.014,-6.927242,4.172288,5.295292
8.034,-6.927784,4.167747,5.302649
8.054,-6.929782,4.161648,5.311896
8.074,-6.931233,4.154675,5.321409
8.094,-6.929245,4.146839,5.330923
8.114,-6.925913,4.138626,5.34106
8.134,-6.924602,4.13004,5.351646
8.154,-6.924931,4.119888,5.361265
8.174,-6.926095,4.110795,5.36983
8.194,-6.9255,4.104427,5.377759
8.214,-6.922588,4.100349,5.385153
8.234,-6.918772,4.095977,5.391803
8.254,-6.914515,4.089662,5.398721
8.274,-6.911043,4.081924,5.406433
8.294,-6.90885,4.07393,5.415575
8.314,-6.907925,4.065919,5.425464
8.334,-6.908445,4.0566,5.435757
8.354,-6.909558,4.045531,5.446043
8.374,-6.910565,4.034524,5.457304
8.394,-6.910771,4.024561,5.468499
8.414,-6.910186,4.015057,5.477955
8.434,-6.908912,4.006007,5.485903
8.454,-6.907866,3.998149,5.494108
8.474,-6.906639,3.991782,5.501703
8.494,-6.905329,3.985455,5.509199
8.514,-6.904893,3.978401,5.516476
8.534,-6.904749,3.971394,5.523799
8.554,-6.904224,3.96539,5.530811
8.574,-6.903177,3.960763,5.53756
8.594,-6.90147,3.956063,5.54362
8.614,-6.900403,3.950117,5.549595
8.634,-6.900304,3.943273,5.555606
8.654,-6.899967,3.937,5.562108
8.674,-6.900208,3.931628,5.569263
8.694,-6.900518,3.925016,5.576729
8.714,-6.900466,3.916579,5.584025
8.734,-6.894429,3.914069,5.588615
8.754,-6.889314,3.925613,5.595409
8.774,-6.89761,3.914274,5.604074
8.794,-6.898831,3.890334,5.609517
8.814,-6.900089,3.872188,5.614737
8.834,-6.899251,3.86574,5.62127
8.854,-6.904455,3.862972,5.631951
8.874,-6.902926,3.853959,5.638503
