accel_time_list,accel_x_list,accel_y_list,accel_z_list
0.011000,-0.640000,-1.072500,9.255000
0.031000,-0.730000,-1.252500,9.090000
0.051000,-0.857500,-1.215000,8.965000
0.071000,-0.907500,-0.990000,8.792500
0.091000,-1.082500,-0.755000,8.620000
0.111000,-1.075000,-0.570000,8.507500
0.131000,-1.062500,-0.490000,8.400000
0.151000,-1.190000,-0.442500,8.280000
0.171000,-1.350000,-0.347500,8.175000
0.191000,-1.587500,-0.337500,8.187500
0.211000,-1.930000,-0.407500,8.242500
0.231000,-2.242500,-0.465000,8.245000
0.251000,-2.472500,-0.497500,8.205000
0.271000,-2.750000,-0.577500,8.257500
0.291000,-3.105000,-0.715000,8.347500
0.311000,-3.427500,-0.855000,8.417500
0.331000,-3.687500,-0.935000,8.462500
0.351000,-3.980000,-1.015000,8.522500
0.371000,-4.320000,-1.157500,8.550000
0.391000,-4.662500,-1.315000,8.570000
0.411000,-4.977500,-1.422500,8.597500
0.431000,-5.242500,-1.487500,8.625000
0.451000,-5.447500,-1.557500,8.642500
0.471000,-5.612500,-1.655000,8.637500
0.491000,-5.742500,-1.780000,8.617500
0.511000,-5.865000,-1.932500,8.617500
0.531000,-5.997500,-2.092500,8.622500
0.551000,-6.097500,-2.227500,8.615000
0.571000,-6.172500,-2.325000,8.597500
0.591000,-6.232500,-2.387500,8.582500
0.611000,-6.282500,-2.410000,8.567500
0.631000,-6.312500,-2.405000,8.552500
0.651000,-6.317500,-2.405000,8.522500
0.671000,-6.302500,-2.420000,8.485000
0.691000,-6.282500,-2.432500,8.450000
0.711000,-6.255000,-2.432500,8.415000
0.731000,-6.222500,-2.420000,8.382500
0.751000,-6.187500,-2.405000,8.350000
0.771000,-6.155000,-2.395000,8.315000
0.791000,-6.120000,-2.385000,8.285000
0.811000,-6.082500,-2.372500,8.255000
0.831000,-6.050000,-2.360000,8.222500
0.851000,-6.027500,-2.340000,8.192500
0.871000,-6.002500,-2.317500,8.172500
0.891000,-5.967500,-2.297500,8.150000
0.911000,-5.932500,-2.275000,8.125000
0.931000,-5.892500,-2.252500,8.100000
0.951000,-5.847500,-2.227500,8.077500
0.971000,-5.792500,-2.200000,8.052500
0.991000,-5.730000,-2.170000,8.022500
1.011000,-5.665000,-2.140000,7.992500
1.031000,-5.600000,-2.107500,7.957500
1.051000,-5.530000,-2.075000,7.922500
1.071000,-5.457500,-2.042500,7.887500
1.091000,-5.375000,-2.012500,7.857500
1.111000,-5.285000,-1.977500,7.817500
1.131000,-5.187500,-1.947500,7.767500
1.151000,-5.090000,-1.917500,7.712500
1.171000,-4.990000,-1.885000,7.657500
1.191000,-4.885000,-1.847500,7.607500
1.211000,-4.777500,-1.805000,7.547500
1.231000,-4.680000,-1.765000,7.475000
1.251000,-4.597500,-1.730000,7.395000
1.271000,-4.520000,-1.695000,7.312500
1.291000,-4.437500,-1.657500,7.227500
1.311000,-4.370000,-1.622500,7.137500
1.331000,-4.347500,-1.587500,7.035000
1.351000,-4.367500,-1.555000,6.905000
1.371000,-4.465000,-1.537500,6.755000
1.391000,-4.800000,-1.570000,6.582500
1.411000,-5.182500,-1.595000,6.285000
1.431000,-5.280000,-1.635000,5.755000
1.451000,-5.200000,-1.790000,5.032500
1.471000,-5.012500,-1.970000,4.427500
1.491000,-4.910000,-2.005000,4.075000
1.511000,-4.645000,-2.302500,8.417500
1.531000,-4.992500,-2.360000,23.017500
1.551000,-4.452500,-3.220000,36.845000
1.571000,-3.650000,-2.770000,16.312500
1.591000,-2.407500,-1.492500,3.317500
1.611000,-1.832500,-0.195000,1.970000
1.631000,-3.230000,-0.592500,0.647500
1.651000,-4.135000,-1.797500,-2.757500
1.671000,-3.767500,-2.825000,-5.927500
1.691000,-2.990000,-3.325000,-7.887500
1.711000,-1.477500,-3.500000,-8.080000
1.731000,0.872500,-3.362500,-7.240000
1.751000,2.760000,-2.862500,-5.952500
1.771000,3.365000,-2.170000,-4.227500
1.791000,3.062500,-1.837500,-2.325000
1.811000,2.497500,-2.160000,0.700000
1.831000,2.322500,-2.152500,4.405000
1.851000,2.190000,-1.192500,8.525000
1.871000,1.377500,0.202500,12.485000
1.891000,0.930000,0.960000,13.542500
1.911000,1.010000,1.125000,12.670000
1.931000,1.110000,1.045000,11.717500
1.951000,1.077500,0.960000,10.975000
1.971000,1.120000,0.985000,10.297500
1.991000,1.332500,1.112500,9.855000
2.015000,1.495000,1.105000,9.770000
2.035000,1.545000,0.797500,9.965000
2.055000,1.582500,0.317500,10.302500
2.075000,1.657500,-0.012500,10.532500
2.095000,1.740000,-0.132500,10.587500
2.115000,1.762500,-0.187500,10.532500
2.135000,1.777500,-0.240000,10.450000
2.155000,1.837500,-0.302500,10.390000
2.175000,1.900000,-0.375000,10.397500
2.195000,1.915000,-0.472500,10.432500
2.215000,1.922500,-0.540000,10.452500
2.235000,1.962500,-0.552500,10.435000
2.255000,2.037500,-0.490000,10.415000
2.275000,2.082500,-0.447500,10.430000
2.295000,2.082500,-0.445000,10.467500
2.315000,2.080000,-0.457500,10.497500
2.335000,2.095000,-0.472500,10.512500
2.355000,2.115000,-0.500000,10.512500
2.375000,2.132500,-0.542500,10.510000
2.395000,2.145000,-0.582500,10.517500
2.415000,2.180000,-0.587500,10.510000
2.435000,2.212500,-0.560000,10.522500
2.455000,2.197500,-0.565000,10.560000
2.475000,2.192500,-0.557500,10.577500
2.495000,2.202500,-0.507500,10.575000
2.515000,2.197500,-0.430000,10.582500
2.535000,2.167500,-0.362500,10.605000
2.555000,2.135000,-0.335000,10.625000
2.575000,2.115000,-0.325000,10.635000
2.595000,2.107500,-0.322500,10.632500
2.615000,2.107500,-0.322500,10.627500
2.635000,2.115000,-0.332500,10.625000
2.655000,2.130000,-0.342500,10.625000
2.675000,2.150000,-0.342500,10.627500
2.695000,2.162500,-0.337500,10.632500
2.715000,2.167500,-0.335000,10.640000
2.735000,2.170000,-0.332500,10.645000
2.755000,2.175000,-0.322500,10.645000
2.775000,2.177500,-0.305000,10.642500
2.795000,2.175000,-0.290000,10.637500
2.815000,2.172500,-0.265000,10.632500
2.835000,2.180000,-0.222500,10.630000
2.855000,2.187500,-0.177500,10.630000
2.875000,2.192500,-0.155000,10.632500
2.895000,2.195000,-0.150000,10.640000
2.915000,2.197500,-0.155000,10.647500
2.935000,2.197500,-0.150000,10.655000
2.955000,2.197500,-0.140000,10.657500
2.975000,2.200000,-0.125000,10.655000
2.995000,2.205000,-0.112500,10.650000
3.015000,2.210000,-0.100000,10.652500
3.035000,2.212500,-0.082500,10.662500
3.055000,2.215000,-0.062500,10.670000
3.075000,2.217500,-0.042500,10.672500
3.095000,2.222500,-0.027500,10.672500
3.115000,2.222500,-0.015000,10.670000
3.135000,2.220000,-0.007500,10.672500
3.155000,2.220000,-0.007500,10.672500
3.175000,2.222500,-0.015000,10.672500
3.195000,2.222500,-0.012500,10.672500
3.215000,2.222500,-0.005000,10.672500
3.235000,2.227500,0.007500,10.670000
3.255000,2.227500,0.025000,10.675000
3.275000,2.227500,0.045000,10.682500
3.295000,2.230000,0.065000,10.687500
3.315000,2.230000,0.080000,10.687500
3.335000,2.232500,0.092500,10.685000
3.355000,2.235000,0.097500,10.685000
3.375000,2.235000,0.102500,10.685000
3.395000,2.237500,0.107500,10.687500
3.415000,2.240000,0.112500,10.687500
3.435000,2.240000,0.122500,10.690000
3.455000,2.240000,0.132500,10.692500
3.475000,2.240000,0.145000,10.692500
3.495000,2.240000,0.155000,10.692500
3.515000,2.240000,0.162500,10.692500
3.535000,2.242500,0.170000,10.692500
3.555000,2.242500,0.177500,10.695000
3.575000,2.245000,0.182500,10.695000
3.595000,2.245000,0.190000,10.695000
3.615000,2.247500,0.197500,10.697500
3.635000,2.247500,0.205000,10.697500
3.655000,2.247500,0.212500,10.697500
3.675000,2.247500,0.220000,10.697500
3.695000,2.250000,0.230000,10.697500
3.715000,2.250000,0.237500,10.700000
3.735000,2.250000,0.247500,10.700000
3.755000,2.252500,0.255000,10.700000
3.775000,2.252500,0.260000,10.700000
3.795000,2.252500,0.267500,10.700000
3.815000,2.255000,0.272500,10.700000
3.835000,2.255000,0.277500,10.700000
3.855000,2.255000,0.285000,10.702500
3.875000,2.257500,0.292500,10.702500
3.895000,2.257500,0.300000,10.702500
3.915000,2.257500,0.310000,10.702500
3.935000,2.260000,0.317500,10.702500
3.955000,2.260000,0.325000,10.702500
3.975000,2.260000,0.330000,10.700000
3.995000,2.262500,0.335000,10.702500
4.016000,2.262500,0.340000,10.702500
4.036000,2.265000,0.345000,10.702500
4.056000,2.265000,0.352500,10.702500
4.076000,2.267500,0.357500,10.702500
4.096000,2.267500,0.362500,10.702500
4.116000,2.267500,0.367500,10.702500
4.136000,2.267500,0.375000,10.702500
4.156000,2.270000,0.382500,10.702500
4.176000,2.270000,0.390000,10.702500
4.196000,2.270000,0.395000,10.702500
4.216000,2.272500,0.402500,10.702500
4.236000,2.272500,0.407500,10.705000
4.256000,2.275000,0.415000,10.705000
4.276000,2.275000,0.420000,10.702500
4.296000,2.275000,0.425000,10.702500
4.316000,2.277500,0.430000,10.702500
4.336000,2.277500,0.435000,10.702500
4.356000,2.277500,0.442500,10.705000
4.376000,2.280000,0.447500,10.705000
4.396000,2.280000,0.452500,10.705000
4.416000,2.282500,0.457500,10.705000
4.436000,2.282500,0.460000,10.705000
4.456000,2.282500,0.465000,10.705000
4.476000,2.285000,0.470000,10.705000
4.496000,2.285000,0.475000,10.705000
4.516000,2.285000,0.480000,10.705000
4.536000,2.287500,0.485000,10.705000
4.556000,2.287500,0.490000,10.705000
4.576000,2.290000,0.492500,10.705000
4.596000,2.290000,0.497500,10.705000
4.616000,2.290000,0.502500,10.705000
4.636000,2.290000,0.507500,10.705000
4.656000,2.292500,0.512500,10.705000
4.676000,2.292500,0.515000,10.705000
4.696000,2.292500,0.520000,10.705000
4.716000,2.295000,0.522500,10.705000
4.736000,2.295000,0.527500,10.705000
4.756000,2.295000,0.532500,10.705000
4.776000,2.295000,0.535000,10.705000
4.796000,2.297500,0.540000,10.705000
4.816000,2.297500,0.545000,10.707500
4.836000,2.297500,0.547500,10.707500
4.856000,2.300000,0.552500,10.707500
4.876000,2.300000,0.555000,10.707500
4.896000,2.300000,0.557500,10.705000
4.916000,2.300000,0.560000,10.707500
4.936000,2.302500,0.565000,10.707500
4.956000,2.302500,0.570000,10.707500
4.976000,2.305000,0.572500,10.707500
4.996000,2.305000,0.577500,10.707500
5.016000,2.305000,0.580000,10.707500
5.036000,2.307500,0.582500,10.707500
5.056000,2.307500,0.587500,10.707500
5.076000,2.307500,0.590000,10.707500
5.096000,2.307500,0.595000,10.707500
5.116000,2.310000,0.597500,10.707500
5.136000,2.310000,0.600000,10.707500
5.156000,2.310000,0.605000,10.707500
5.176000,2.310000,0.607500,10.707500
5.196000,2.312500,0.612500,10.707500
5.216000,2.312500,0.615000,10.707500
5.236000,2.312500,0.620000,10.707500
5.256000,2.315000,0.620000,10.707500
5.276000,2.315000,0.625000,10.707500
5.296000,2.317500,0.630000,10.707500
5.316000,2.317500,0.632500,10.707500
5.336000,2.317500,0.635000,10.707500
5.356000,2.317500,0.635000,10.707500
5.376000,2.320000,0.637500,10.707500
5.396000,2.320000,0.640000,10.705000
5.416000,2.317500,0.642500,10.707500
5.436000,2.320000,0.640000,10.710000
5.456000,2.322500,0.637500,10.707500
5.476000,2.325000,0.640000,10.705000
5.496000,2.325000,0.652500,10.702500
5.516000,2.322500,0.670000,10.705000
5.536000,2.320000,0.685000,10.712500
5.556000,2.317500,0.690000,10.715000
5.576000,2.315000,0.687500,10.715000
5.596000,2.312500,0.690000,10.717500
5.616000,2.310000,0.685000,10.720000
5.636000,2.312500,0.682500,10.720000
5.656000,2.312500,0.685000,10.727500
5.676000,2.310000,0.690000,10.735000
5.696000,2.307500,0.707500,10.737500
5.716000,2.302500,0.725000,10.737500
5.736000,2.297500,0.727500,10.735000
5.756000,2.297500,0.710000,10.735000
5.776000,2.295000,0.692500,10.737500
5.796000,2.292500,0.680000,10.745000
5.816000,2.292500,0.670000,10.750000
5.836000,2.302500,0.655000,10.747500
5.856000,2.310000,0.637500,10.745000
5.876000,2.317500,0.627500,10.745000
5.896000,2.332500,0.620000,10.740000
5.916000,2.352500,0.610000,10.732500
5.936000,2.372500,0.600000,10.722500
5.956000,2.392500,0.582500,10.710000
5.976000,2.407500,0.562500,10.690000
5.996000,2.417500,0.537500,10.670000
6.017000,2.425000,0.507500,10.655000
6.037000,2.430000,0.475000,10.647500
6.057000,2.440000,0.445000,10.645000
6.077000,2.452500,0.422500,10.635000
6.097000,2.472500,0.395000,10.625000
6.117000,2.487500,0.372500,10.610000
6.137000,2.500000,0.352500,10.595000
6.157000,2.510000,0.332500,10.590000
6.177000,2.510000,0.317500,10.605000
6.197000,2.497500,0.322500,10.630000
6.217000,2.487500,0.340000,10.652500
6.237000,2.482500,0.355000,10.660000
6.257000,2.477500,0.365000,10.660000
6.277000,2.477500,0.370000,10.660000
6.297000,2.480000,0.352500,10.662500
6.317000,2.482500,0.320000,10.662500
6.337000,2.487500,0.282500,10.657500
6.357000,2.497500,0.250000,10.650000
6.377000,2.510000,0.217500,10.642500
6.397000,2.530000,0.192500,10.632500
6.417000,2.550000,0.185000,10.627500
6.437000,2.560000,0.192500,10.627500
6.457000,2.565000,0.207500,10.627500
6.477000,2.577500,0.222500,10.625000
6.497000,2.592500,0.232500,10.617500
6.517000,2.602500,0.232500,10.607500
6.537000,2.610000,0.232500,10.602500
6.557000,2.615000,0.237500,10.605000
6.577000,2.617500,0.242500,10.610000
6.597000,2.615000,0.240000,10.617500
6.617000,2.610000,0.232500,10.627500
6.637000,2.610000,0.225000,10.632500
6.657000,2.607500,0.222500,10.637500
6.677000,2.605000,0.220000,10.635000
6.697000,2.605000,0.217500,10.632500
6.717000,2.605000,0.215000,10.627500
6.737000,2.602500,0.215000,10.625000
6.757000,2.602500,0.220000,10.627500
6.777000,2.602500,0.232500,10.635000
6.797000,2.602500,0.245000,10.640000
6.817000,2.592500,0.277500,10.645000
6.837000,2.597500,0.290000,10.645000
6.857000,2.595000,0.287500,10.647500
6.877000,2.592500,0.270000,10.650000
6.897000,2.585000,0.260000,10.650000
6.917000,2.585000,0.250000,10.647500
6.937000,2.585000,0.245000,10.645000
6.957000,2.585000,0.265000,10.647500
6.977000,2.575000,0.272500,10.647500
6.997000,2.582500,0.275000,10.647500
7.017000,2.587500,0.272500,10.650000
7.037000,2.585000,0.270000,10.655000
7.057000,2.577500,0.262500,10.652500
7.077000,2.575000,0.257500,10.650000
7.097000,2.572500,0.257500,10.655000
7.117000,2.572500,0.260000,10.657500
7.137000,2.572500,0.260000,10.660000
7.157000,2.570000,0.255000,10.660000
7.177000,2.565000,0.252500,10.660000
7.197000,2.565000,0.255000,10.662500
7.217000,2.560000,0.255000,10.665000
7.237000,2.552500,0.250000,10.665000
7.257000,2.545000,0.245000,10.665000
7.277000,2.537500,0.242500,10.667500
7.297000,2.532500,0.247500,10.672500
7.317000,2.527500,0.252500,10.672500
7.337000,2.520000,0.255000,10.672500
7.357000,2.515000,0.250000,10.677500
7.377000,2.510000,0.242500,10.680000
7.397000,2.505000,0.245000,10.682500
7.417000,2.502500,0.245000,10.682500
7.437000,2.495000,0.242500,10.685000
7.457000,2.490000,0.240000,10.687500
7.477000,2.485000,0.242500,10.687500
7.497000,2.482500,0.242500,10.687500
7.517000,2.480000,0.242500,10.690000
7.537000,2.475000,0.240000,10.690000
7.557000,2.470000,0.240000,10.690000
7.577000,2.467500,0.240000,10.692500
7.597000,2.465000,0.240000,10.695000
7.617000,2.460000,0.240000,10.695000
7.637000,2.457500,0.237500,10.695000
7.657000,2.452500,0.232500,10.695000
7.677000,2.447500,0.230000,10.697500
7.697000,2.447500,0.232500,10.697500
7.717000,2.445000,0.232500,10.697500
7.737000,2.437500,0.230000,10.697500
7.757000,2.432500,0.227500,10.700000
7.777000,2.432500,0.225000,10.700000
7.797000,2.427500,0.222500,10.702500
7.817000,2.425000,0.222500,10.702500
7.837000,2.422500,0.220000,10.702500
7.857000,2.415000,0.215000,10.705000
7.877000,2.412500,0.212500,10.705000
7.897000,2.410000,0.210000,10.705000
7.917000,2.402500,0.212500,10.705000
7.937000,2.400000,0.220000,10.707500
7.957000,2.392500,0.220000,10.710000
7.977000,2.392500,0.220000,10.712500
7.997000,2.390000,0.212500,10.710000
