gyro_time_list,gyro_x_list,gyro_y_list,gyro_z_list
0.011000,0.276000,0.126000,0.288000
0.031000,0.312000,0.169000,0.317000
0.051000,0.313000,0.220000,0.366000
0.071000,0.271000,0.271000,0.488000
0.091000,0.207000,0.325000,0.550000
0.111000,0.105000,0.375000,0.631000
0.131000,-0.007000,0.447000,0.696000
0.151000,-0.114000,0.538000,0.776000
0.171000,-0.215000,0.640000,0.864000
0.191000,-0.314000,0.751000,0.962000
0.211000,-0.412000,0.863000,1.055000
0.231000,-0.489000,0.966000,1.153000
0.251000,-0.544000,1.064000,1.252000
0.271000,-0.596000,1.164000,1.347000
0.291000,-0.659000,1.265000,1.430000
0.311000,-0.738000,1.361000,1.503000
0.331000,-0.840000,1.450000,1.568000
0.351000,-0.963000,1.531000,1.627000
0.371000,-1.098000,1.601000,1.678000
0.391000,-1.229000,1.656000,1.724000
0.411000,-1.345000,1.696000,1.765000
0.431000,-1.426000,1.722000,1.802000
0.451000,-1.457000,1.734000,1.833000
0.471000,-1.439000,1.733000,1.855000
0.491000,-1.390000,1.719000,1.865000
0.511000,-1.331000,1.693000,1.860000
0.531000,-1.276000,1.655000,1.840000
0.551000,-1.236000,1.604000,1.805000
0.571000,-1.213000,1.540000,1.759000
0.591000,-1.202000,1.468000,1.703000
0.611000,-1.204000,1.390000,1.640000
0.631000,-1.217000,1.307000,1.572000
0.651000,-1.232000,1.220000,1.501000
0.671000,-1.241000,1.133000,1.430000
0.691000,-1.245000,1.047000,1.360000
0.711000,-1.248000,0.963000,1.292000
0.731000,-1.247000,0.881000,1.226000
0.751000,-1.240000,0.803000,1.163000
0.771000,-1.228000,0.728000,1.102000
0.791000,-1.213000,0.659000,1.043000
0.811000,-1.194000,0.594000,0.986000
0.831000,-1.170000,0.532000,0.930000
0.851000,-1.143000,0.475000,0.875000
0.871000,-1.114000,0.421000,0.822000
0.891000,-1.082000,0.371000,0.771000
0.911000,-1.048000,0.324000,0.723000
0.931000,-1.013000,0.277000,0.676000
0.951000,-0.979000,0.232000,0.631000
0.971000,-0.948000,0.189000,0.588000
0.991000,-0.917000,0.148000,0.546000
1.011000,-0.886000,0.110000,0.507000
1.031000,-0.858000,0.071000,0.470000
1.051000,-0.830000,0.031000,0.435000
1.071000,-0.805000,-0.010000,0.400000
1.091000,-0.781000,-0.050000,0.364000
1.111000,-0.759000,-0.089000,0.329000
1.131000,-0.736000,-0.128000,0.293000
1.151000,-0.714000,-0.170000,0.259000
1.171000,-0.697000,-0.213000,0.227000
1.191000,-0.683000,-0.257000,0.195000
1.211000,-0.671000,-0.302000,0.162000
1.231000,-0.658000,-0.348000,0.130000
1.251000,-0.642000,-0.393000,0.096000
1.271000,-0.623000,-0.434000,0.062000
1.291000,-0.599000,-0.469000,0.029000
1.311000,-0.568000,-0.498000,-0.004000
1.331000,-0.532000,-0.522000,-0.034000
1.351000,-0.497000,-0.542000,-0.062000
1.371000,-0.461000,-0.556000,-0.089000
1.391000,-0.423000,-0.562000,-0.110000
1.411000,-0.380000,-0.561000,-0.124000
1.431000,-0.335000,-0.568000,-0.135000
1.451000,-0.298000,-0.586000,-0.146000
1.471000,-0.277000,-0.601000,-0.162000
1.491000,-0.280000,-0.616000,-0.184000
1.511000,-0.298000,-0.667000,-0.211000
1.531000,-0.304000,-0.727000,-0.251000
1.551000,-0.278000,-0.735000,-0.310000
1.571000,-0.222000,-0.653000,-0.359000
1.591000,-0.086000,-0.579000,-0.299000
1.611000,0.065000,-0.699000,-0.144000
1.631000,0.017000,-0.837000,-0.018000
1.651000,-0.151000,-0.982000,-0.154000
1.671000,-0.331000,-1.132000,-0.339000
1.691000,-0.415000,-1.184000,-0.514000
1.711000,-0.343000,-1.156000,-0.519000
1.731000,-0.454000,-1.153000,-0.396000
1.751000,-0.541000,-1.203000,-0.246000
1.771000,-0.448000,-1.158000,-0.085000
1.791000,-0.254000,-1.012000,0.016000
1.811000,-0.135000,-0.830000,0.045000
1.831000,-0.135000,-0.636000,0.016000
1.851000,-0.194000,-0.440000,-0.012000
1.871000,-0.233000,-0.270000,-0.032000
1.891000,-0.215000,-0.127000,-0.041000
1.911000,-0.073000,-0.016000,-0.007000
1.931000,0.151000,0.078000,0.020000
1.951000,0.373000,0.118000,0.076000
1.971000,0.408000,0.102000,0.094000
1.991000,0.269000,0.071000,0.069000
2.011000,0.070000,0.029000,0.020000
2.031000,-0.103000,-0.018000,-0.028000
2.051000,-0.193000,-0.059000,-0.058000
2.071000,-0.214000,-0.086000,-0.073000
2.091000,-0.212000,-0.101000,-0.074000
2.111000,-0.212000,-0.108000,-0.072000
2.131000,-0.225000,-0.105000,-0.066000
2.151000,-0.259000,-0.091000,-0.059000
2.171000,-0.324000,-0.073000,-0.058000
2.191000,-0.388000,-0.057000,-0.053000
2.211000,-0.440000,-0.050000,-0.049000
2.231000,-0.499000,-0.054000,-0.051000
2.251000,-0.548000,-0.063000,-0.061000
2.271000,-0.553000,-0.071000,-0.071000
2.291000,-0.513000,-0.068000,-0.077000
2.311000,-0.459000,-0.062000,-0.080000
2.331000,-0.408000,-0.055000,-0.082000
2.351000,-0.359000,-0.049000,-0.081000
2.371000,-0.323000,-0.045000,-0.080000
2.391000,-0.307000,-0.044000,-0.080000
2.411000,-0.303000,-0.043000,-0.080000
2.431000,-0.305000,-0.042000,-0.081000
2.451000,-0.309000,-0.040000,-0.082000
2.471000,-0.313000,-0.038000,-0.082000
2.491000,-0.314000,-0.036000,-0.082000
2.511000,-0.313000,-0.035000,-0.082000
2.531000,-0.309000,-0.034000,-0.081000
2.551000,-0.301000,-0.032000,-0.080000
2.571000,-0.290000,-0.031000,-0.079000
2.591000,-0.279000,-0.028000,-0.078000
2.611000,-0.269000,-0.026000,-0.077000
2.631000,-0.260000,-0.024000,-0.075000
2.651000,-0.252000,-0.022000,-0.073000
2.671000,-0.247000,-0.020000,-0.072000
2.691000,-0.240000,-0.018000,-0.070000
2.711000,-0.229000,-0.015000,-0.067000
2.731000,-0.221000,-0.012000,-0.064000
2.751000,-0.216000,-0.011000,-0.063000
2.771000,-0.210000,-0.010000,-0.062000
2.791000,-0.204000,-0.010000,-0.061000
2.811000,-0.200000,-0.008000,-0.060000
2.831000,-0.195000,-0.007000,-0.059000
2.851000,-0.191000,-0.006000,-0.058000
2.871000,-0.188000,-0.006000,-0.057000
2.891000,-0.187000,-0.006000,-0.056000
2.911000,-0.187000,-0.005000,-0.056000
2.931000,-0.184000,-0.005000,-0.055000
2.951000,-0.180000,-0.004000,-0.055000
2.971000,-0.175000,-0.003000,-0.054000
2.991000,-0.171000,-0.002000,-0.053000
3.011000,-0.168000,-0.001000,-0.052000
3.031000,-0.166000,-0.001000,-0.051000
3.051000,-0.165000,0.000000,-0.050000
3.071000,-0.164000,0.001000,-0.050000
3.091000,-0.162000,0.001000,-0.049000
3.111000,-0.159000,0.002000,-0.048000
3.131000,-0.156000,0.002000,-0.047000
3.151000,-0.154000,0.003000,-0.047000
3.171000,-0.153000,0.003000,-0.046000
3.191000,-0.152000,0.003000,-0.046000
3.211000,-0.152000,0.003000,-0.046000
3.231000,-0.152000,0.003000,-0.046000
3.251000,-0.151000,0.003000,-0.045000
3.271000,-0.151000,0.003000,-0.045000
3.291000,-0.151000,0.003000,-0.045000
3.311000,-0.150000,0.003000,-0.045000
3.331000,-0.150000,0.003000,-0.044000
3.351000,-0.149000,0.003000,-0.044000
3.371000,-0.148000,0.003000,-0.044000
3.391000,-0.146000,0.004000,-0.044000
3.411000,-0.144000,0.004000,-0.043000
3.431000,-0.142000,0.004000,-0.043000
3.451000,-0.141000,0.004000,-0.043000
3.471000,-0.139000,0.004000,-0.043000
3.491000,-0.138000,0.004000,-0.042000
3.511000,-0.136000,0.005000,-0.042000
3.531000,-0.134000,0.005000,-0.042000
3.551000,-0.134000,0.005000,-0.041000
3.571000,-0.134000,0.005000,-0.041000
3.591000,-0.134000,0.005000,-0.041000
3.611000,-0.134000,0.005000,-0.041000
3.631000,-0.133000,0.005000,-0.041000
3.651000,-0.132000,0.005000,-0.040000
3.671000,-0.131000,0.006000,-0.040000
3.691000,-0.130000,0.006000,-0.040000
3.711000,-0.129000,0.006000,-0.040000
3.731000,-0.128000,0.006000,-0.039000
3.751000,-0.127000,0.006000,-0.039000
3.771000,-0.127000,0.006000,-0.039000
3.791000,-0.126000,0.006000,-0.039000
3.811000,-0.125000,0.007000,-0.039000
3.831000,-0.124000,0.007000,-0.038000
3.851000,-0.123000,0.007000,-0.038000
3.871000,-0.122000,0.007000,-0.038000
3.891000,-0.122000,0.007000,-0.037000
3.911000,-0.122000,0.007000,-0.037000
3.931000,-0.121000,0.007000,-0.037000
3.951000,-0.120000,0.007000,-0.037000
3.971000,-0.119000,0.007000,-0.036000
3.991000,-0.118000,0.008000,-0.036000
4.011000,-0.117000,0.008000,-0.036000
4.031000,-0.117000,0.008000,-0.036000
4.051000,-0.117000,0.008000,-0.036000
4.071000,-0.117000,0.008000,-0.036000
4.091000,-0.117000,0.008000,-0.036000
4.111000,-0.116000,0.008000,-0.035000
4.131000,-0.115000,0.008000,-0.035000
4.151000,-0.115000,0.008000,-0.035000
4.171000,-0.114000,0.009000,-0.035000
4.191000,-0.114000,0.009000,-0.035000
4.211000,-0.113000,0.009000,-0.034000
4.231000,-0.112000,0.009000,-0.034000
4.251000,-0.112000,0.009000,-0.034000
4.271000,-0.111000,0.009000,-0.034000
4.291000,-0.110000,0.009000,-0.034000
4.311000,-0.110000,0.009000,-0.033000
4.331000,-0.109000,0.010000,-0.033000
4.351000,-0.109000,0.010000,-0.033000
4.371000,-0.108000,0.010000,-0.033000
4.391000,-0.107000,0.010000,-0.033000
4.411000,-0.106000,0.010000,-0.032000
4.431000,-0.105000,0.010000,-0.032000
4.451000,-0.104000,0.011000,-0.032000
4.471000,-0.104000,0.011000,-0.032000
4.491000,-0.103000,0.011000,-0.032000
4.511000,-0.103000,0.011000,-0.031000
4.531000,-0.103000,0.011000,-0.031000
4.551000,-0.102000,0.011000,-0.031000
4.571000,-0.102000,0.011000,-0.031000
4.591000,-0.101000,0.012000,-0.031000
4.611000,-0.100000,0.012000,-0.031000
4.631000,-0.099000,0.012000,-0.030000
4.651000,-0.099000,0.012000,-0.030000
4.671000,-0.099000,0.012000,-0.030000
4.691000,-0.098000,0.012000,-0.030000
4.711000,-0.098000,0.013000,-0.030000
4.731000,-0.097000,0.013000,-0.030000
4.751000,-0.096000,0.013000,-0.029000
4.771000,-0.096000,0.013000,-0.029000
4.791000,-0.096000,0.013000,-0.029000
4.811000,-0.095000,0.013000,-0.029000
4.831000,-0.095000,0.013000,-0.029000
4.851000,-0.094000,0.013000,-0.028000
4.871000,-0.093000,0.014000,-0.028000
4.891000,-0.093000,0.014000,-0.028000
4.911000,-0.093000,0.014000,-0.028000
4.931000,-0.093000,0.014000,-0.028000
4.951000,-0.092000,0.014000,-0.028000
4.971000,-0.092000,0.014000,-0.028000
4.991000,-0.092000,0.014000,-0.027000
5.011000,-0.092000,0.014000,-0.027000
5.031000,-0.091000,0.014000,-0.027000
5.051000,-0.091000,0.014000,-0.027000
5.071000,-0.090000,0.014000,-0.027000
5.091000,-0.090000,0.014000,-0.027000
5.111000,-0.090000,0.014000,-0.027000
5.131000,-0.090000,0.014000,-0.026000
5.151000,-0.090000,0.014000,-0.026000
5.171000,-0.089000,0.015000,-0.026000
5.191000,-0.089000,0.015000,-0.026000
5.211000,-0.089000,0.015000,-0.026000
5.231000,-0.089000,0.014000,-0.026000
5.251000,-0.089000,0.015000,-0.026000
5.271000,-0.088000,0.015000,-0.025000
5.291000,-0.087000,0.015000,-0.025000
5.311000,-0.087000,0.015000,-0.025000
5.331000,-0.087000,0.015000,-0.025000
5.351000,-0.087000,0.015000,-0.025000
5.371000,-0.087000,0.015000,-0.025000
5.391000,-0.088000,0.015000,-0.025000
5.411000,-0.088000,0.015000,-0.025000
5.431000,-0.088000,0.015000,-0.025000
5.451000,-0.087000,0.015000,-0.025000
5.471000,-0.087000,0.015000,-0.025000
5.491000,-0.087000,0.015000,-0.025000
5.511000,-0.086000,0.015000,-0.025000
5.531000,-0.086000,0.015000,-0.024000
5.551000,-0.086000,0.015000,-0.024000
5.571000,-0.085000,0.016000,-0.024000
5.591000,-0.084000,0.016000,-0.024000
5.611000,-0.082000,0.017000,-0.024000
5.631000,-0.080000,0.017000,-0.024000
5.651000,-0.079000,0.018000,-0.024000
5.671000,-0.078000,0.018000,-0.024000
5.691000,-0.078000,0.018000,-0.023000
5.711000,-0.077000,0.019000,-0.023000
5.731000,-0.077000,0.019000,-0.023000
5.751000,-0.077000,0.019000,-0.022000
5.771000,-0.078000,0.019000,-0.022000
5.791000,-0.080000,0.019000,-0.021000
5.811000,-0.081000,0.019000,-0.021000
5.831000,-0.083000,0.019000,-0.020000
5.851000,-0.085000,0.019000,-0.019000
5.871000,-0.087000,0.018000,-0.019000
5.891000,-0.088000,0.018000,-0.018000
5.911000,-0.089000,0.018000,-0.017000
5.931000,-0.091000,0.018000,-0.016000
5.951000,-0.094000,0.019000,-0.014000
5.971000,-0.099000,0.020000,-0.013000
5.991000,-0.105000,0.022000,-0.013000
6.011000,-0.112000,0.023000,-0.014000
6.031000,-0.113000,0.025000,-0.016000
6.051000,-0.110000,0.027000,-0.016000
6.071000,-0.108000,0.029000,-0.016000
6.091000,-0.108000,0.030000,-0.015000
6.111000,-0.110000,0.030000,-0.014000
6.131000,-0.113000,0.032000,-0.016000
6.151000,-0.117000,0.034000,-0.019000
6.171000,-0.124000,0.038000,-0.026000
6.191000,-0.134000,0.043000,-0.034000
6.211000,-0.139000,0.048000,-0.041000
6.231000,-0.138000,0.053000,-0.046000
6.251000,-0.132000,0.057000,-0.050000
6.271000,-0.120000,0.061000,-0.049000
6.291000,-0.109000,0.064000,-0.047000
6.311000,-0.108000,0.064000,-0.049000
6.331000,-0.105000,0.061000,-0.052000
6.351000,-0.093000,0.058000,-0.054000
6.371000,-0.076000,0.055000,-0.057000
6.391000,-0.061000,0.052000,-0.062000
6.411000,-0.049000,0.046000,-0.069000
6.431000,-0.041000,0.039000,-0.078000
6.451000,-0.035000,0.032000,-0.086000
6.471000,-0.030000,0.025000,-0.094000
6.491000,-0.026000,0.019000,-0.103000
6.511000,-0.025000,0.013000,-0.110000
6.531000,-0.023000,0.008000,-0.118000
6.551000,-0.021000,0.003000,-0.124000
6.571000,-0.019000,0.000000,-0.129000
6.591000,-0.018000,-0.002000,-0.133000
6.611000,-0.015000,-0.004000,-0.137000
6.631000,-0.009000,-0.006000,-0.140000
6.651000,-0.001000,-0.008000,-0.142000
6.671000,0.004000,-0.009000,-0.142000
6.691000,0.004000,-0.012000,-0.143000
6.711000,0.007000,-0.013000,-0.144000
6.731000,0.013000,-0.013000,-0.142000
6.751000,0.018000,-0.011000,-0.141000
6.771000,0.019000,-0.009000,-0.140000
6.791000,0.020000,-0.006000,-0.141000
6.811000,0.020000,-0.004000,-0.142000
6.831000,0.019000,-0.001000,-0.143000
6.851000,0.018000,0.001000,-0.143000
6.871000,0.016000,0.003000,-0.144000
6.891000,0.015000,0.005000,-0.145000
6.911000,0.016000,0.008000,-0.145000
6.931000,0.018000,0.010000,-0.145000
6.951000,0.018000,0.014000,-0.146000
6.971000,0.019000,0.017000,-0.146000
6.991000,0.020000,0.021000,-0.146000
7.011000,0.022000,0.024000,-0.146000
7.031000,0.023000,0.027000,-0.146000
7.051000,0.024000,0.029000,-0.146000
7.071000,0.023000,0.032000,-0.146000
7.091000,0.023000,0.035000,-0.145000
7.111000,0.022000,0.037000,-0.144000
7.131000,0.019000,0.038000,-0.143000
7.151000,0.016000,0.041000,-0.141000
7.171000,0.013000,0.043000,-0.140000
7.191000,0.011000,0.044000,-0.139000
7.211000,0.013000,0.046000,-0.137000
7.231000,0.015000,0.049000,-0.135000
7.251000,0.015000,0.052000,-0.134000
7.271000,0.015000,0.055000,-0.132000
7.291000,0.016000,0.057000,-0.131000
7.311000,0.017000,0.060000,-0.129000
7.331000,0.018000,0.062000,-0.128000
7.351000,0.017000,0.064000,-0.127000
7.371000,0.016000,0.066000,-0.126000
7.391000,0.015000,0.067000,-0.125000
7.411000,0.013000,0.069000,-0.124000
7.431000,0.012000,0.070000,-0.123000
7.451000,0.012000,0.071000,-0.121000
7.471000,0.010000,0.072000,-0.120000
7.491000,0.009000,0.074000,-0.119000
7.511000,0.007000,0.075000,-0.118000
7.531000,0.006000,0.077000,-0.117000
7.551000,0.006000,0.079000,-0.116000
7.571000,0.005000,0.081000,-0.114000
7.591000,0.004000,0.082000,-0.113000
7.611000,0.003000,0.084000,-0.113000
7.631000,0.004000,0.085000,-0.112000
7.651000,0.004000,0.086000,-0.111000
7.671000,0.002000,0.088000,-0.111000
7.691000,0.000000,0.089000,-0.110000
7.711000,-0.001000,0.090000,-0.110000
7.731000,-0.001000,0.091000,-0.110000
7.751000,-0.002000,0.092000,-0.109000
7.771000,-0.003000,0.094000,-0.109000
7.791000,-0.004000,0.095000,-0.108000
7.811000,-0.005000,0.097000,-0.108000
7.831000,-0.006000,0.098000,-0.108000
7.851000,-0.007000,0.099000,-0.107000
7.871000,-0.007000,0.100000,-0.107000
7.891000,-0.008000,0.101000,-0.106000
7.911000,-0.010000,0.103000,-0.106000
7.931000,-0.010000,0.104000,-0.106000
7.951000,-0.010000,0.105000,-0.106000
7.971000,-0.009000,0.106000,-0.106000
7.991000,-0.009000,0.106000,-0.105000
