gyro_time_list,gyro_x_list,gyro_y_list,gyro_z_list
0.006000,0.121000,0.390000,0.251000
0.026000,0.104000,0.481000,0.334000
0.046000,0.084000,0.591000,0.390000
0.066000,0.046000,0.715000,0.483000
0.086000,-0.040000,0.843000,0.591000
0.106000,-0.156000,0.965000,0.675000
0.126000,-0.285000,1.086000,0.755000
0.146000,-0.409000,1.202000,0.830000
0.166000,-0.508000,1.308000,0.912000
0.186000,-0.583000,1.407000,0.998000
0.206000,-0.663000,1.500000,1.085000
0.226000,-0.761000,1.583000,1.169000
0.246000,-0.867000,1.652000,1.252000
0.266000,-0.978000,1.709000,1.334000
0.286000,-1.096000,1.757000,1.411000
0.306000,-1.207000,1.796000,1.485000
0.326000,-1.298000,1.822000,1.555000
0.346000,-1.370000,1.834000,1.620000
0.366000,-1.428000,1.837000,1.675000
0.386000,-1.475000,1.834000,1.720000
0.406000,-1.511000,1.824000,1.755000
0.426000,-1.535000,1.805000,1.779000
0.446000,-1.548000,1.779000,1.793000
0.466000,-1.548000,1.743000,1.797000
0.486000,-1.537000,1.696000,1.792000
0.506000,-1.525000,1.638000,1.774000
0.526000,-1.513000,1.569000,1.745000
0.546000,-1.499000,1.491000,1.705000
0.566000,-1.486000,1.404000,1.656000
0.586000,-1.475000,1.311000,1.598000
0.606000,-1.466000,1.213000,1.533000
0.626000,-1.455000,1.109000,1.465000
0.646000,-1.441000,1.003000,1.395000
0.666000,-1.418000,0.897000,1.325000
0.686000,-1.386000,0.796000,1.257000
0.706000,-1.349000,0.699000,1.192000
0.726000,-1.311000,0.606000,1.129000
0.746000,-1.273000,0.520000,1.068000
0.766000,-1.233000,0.441000,1.010000
0.786000,-1.192000,0.369000,0.957000
0.806000,-1.151000,0.301000,0.906000
0.826000,-1.110000,0.237000,0.857000
0.846000,-1.070000,0.180000,0.811000
0.866000,-1.030000,0.127000,0.766000
0.886000,-0.993000,0.078000,0.724000
0.906000,-0.958000,0.032000,0.682000
0.926000,-0.926000,-0.011000,0.642000
0.946000,-0.895000,-0.051000,0.603000
0.966000,-0.866000,-0.087000,0.565000
0.986000,-0.839000,-0.123000,0.528000
1.006000,-0.812000,-0.157000,0.492000
1.026000,-0.788000,-0.190000,0.456000
1.046000,-0.765000,-0.219000,0.421000
1.066000,-0.742000,-0.246000,0.386000
1.086000,-0.719000,-0.274000,0.352000
1.106000,-0.698000,-0.302000,0.318000
1.126000,-0.680000,-0.331000,0.284000
1.146000,-0.664000,-0.360000,0.249000
1.166000,-0.647000,-0.389000,0.213000
1.186000,-0.629000,-0.421000,0.176000
1.206000,-0.607000,-0.454000,0.137000
1.226000,-0.583000,-0.486000,0.099000
1.246000,-0.556000,-0.514000,0.061000
1.266000,-0.529000,-0.539000,0.024000
1.286000,-0.500000,-0.559000,-0.013000
1.306000,-0.472000,-0.575000,-0.047000
1.326000,-0.446000,-0.587000,-0.080000
1.346000,-0.427000,-0.596000,-0.113000
1.366000,-0.414000,-0.601000,-0.145000
1.386000,-0.405000,-0.602000,-0.179000
1.406000,-0.402000,-0.596000,-0.213000
1.426000,-0.415000,-0.594000,-0.253000
1.446000,-0.449000,-0.608000,-0.296000
1.466000,-0.480000,-0.632000,-0.339000
1.486000,-0.470000,-0.627000,-0.402000
1.506000,-0.448000,-0.570000,-0.479000
1.526000,-0.419000,-0.456000,-0.544000
1.546000,-0.344000,-0.301000,-0.543000
1.566000,-0.207000,-0.213000,-0.501000
1.586000,-0.120000,-0.373000,-0.325000
1.606000,-0.262000,-0.543000,-0.404000
1.626000,-0.255000,-0.722000,-0.566000
1.646000,-0.080000,-0.907000,-0.723000
1.666000,0.103000,-1.043000,-0.716000
1.686000,0.034000,-1.151000,-0.608000
1.706000,-0.151000,-1.249000,-0.473000
1.726000,-0.293000,-1.260000,-0.313000
1.746000,-0.317000,-1.155000,-0.159000
1.766000,-0.276000,-0.933000,-0.084000
1.786000,-0.160000,-0.622000,-0.098000
1.806000,0.022000,-0.289000,-0.114000
1.826000,0.260000,-0.039000,-0.122000
1.846000,0.437000,0.019000,-0.093000
1.866000,0.354000,-0.021000,-0.079000
1.886000,0.146000,-0.087000,-0.075000
1.906000,-0.029000,-0.133000,-0.078000
1.926000,-0.107000,-0.147000,-0.081000
1.946000,-0.118000,-0.142000,-0.084000
1.966000,-0.106000,-0.131000,-0.087000
1.986000,-0.095000,-0.121000,-0.089000
2.006000,-0.088000,-0.113000,-0.089000
2.026000,-0.080000,-0.109000,-0.087000
2.046000,-0.080000,-0.107000,-0.084000
2.066000,-0.085000,-0.105000,-0.081000
2.086000,-0.085000,-0.103000,-0.080000
2.106000,-0.077000,-0.102000,-0.080000
2.126000,-0.073000,-0.101000,-0.081000
2.146000,-0.076000,-0.098000,-0.080000
2.166000,-0.082000,-0.091000,-0.078000
2.186000,-0.091000,-0.085000,-0.076000
2.206000,-0.103000,-0.084000,-0.076000
2.226000,-0.114000,-0.084000,-0.075000
2.246000,-0.119000,-0.084000,-0.075000
2.266000,-0.117000,-0.082000,-0.076000
2.286000,-0.110000,-0.081000,-0.078000
2.306000,-0.104000,-0.081000,-0.080000
2.326000,-0.103000,-0.079000,-0.082000
2.346000,-0.104000,-0.078000,-0.084000
2.366000,-0.106000,-0.076000,-0.086000
2.386000,-0.109000,-0.075000,-0.087000
2.406000,-0.113000,-0.073000,-0.087000
2.426000,-0.116000,-0.070000,-0.087000
2.446000,-0.116000,-0.067000,-0.087000
2.466000,-0.113000,-0.064000,-0.088000
2.486000,-0.111000,-0.063000,-0.088000
2.506000,-0.109000,-0.061000,-0.089000
2.526000,-0.108000,-0.059000,-0.089000
2.546000,-0.105000,-0.058000,-0.089000
2.566000,-0.101000,-0.057000,-0.089000
2.586000,-0.098000,-0.056000,-0.090000
2.606000,-0.095000,-0.055000,-0.090000
2.626000,-0.090000,-0.053000,-0.089000
2.646000,-0.086000,-0.051000,-0.088000
2.666000,-0.085000,-0.049000,-0.087000
2.686000,-0.085000,-0.048000,-0.086000
2.706000,-0.084000,-0.046000,-0.085000
2.726000,-0.082000,-0.044000,-0.084000
2.746000,-0.081000,-0.042000,-0.082000
2.766000,-0.081000,-0.040000,-0.081000
2.786000,-0.081000,-0.039000,-0.080000
2.806000,-0.081000,-0.037000,-0.078000
2.826000,-0.081000,-0.036000,-0.077000
2.846000,-0.082000,-0.035000,-0.076000
2.866000,-0.082000,-0.035000,-0.075000
2.886000,-0.083000,-0.033000,-0.074000
2.906000,-0.083000,-0.032000,-0.073000
2.926000,-0.083000,-0.031000,-0.073000
2.946000,-0.083000,-0.030000,-0.072000
2.966000,-0.083000,-0.030000,-0.072000
2.986000,-0.083000,-0.029000,-0.071000
3.006000,-0.083000,-0.029000,-0.070000
3.026000,-0.084000,-0.028000,-0.069000
3.046000,-0.083000,-0.028000,-0.069000
3.066000,-0.082000,-0.027000,-0.068000
3.086000,-0.081000,-0.026000,-0.068000
3.106000,-0.080000,-0.025000,-0.067000
3.126000,-0.081000,-0.025000,-0.066000
3.146000,-0.081000,-0.024000,-0.065000
3.166000,-0.081000,-0.024000,-0.065000
3.186000,-0.081000,-0.023000,-0.064000
3.206000,-0.082000,-0.022000,-0.064000
3.226000,-0.082000,-0.022000,-0.063000
3.246000,-0.082000,-0.022000,-0.063000
3.266000,-0.082000,-0.021000,-0.062000
3.286000,-0.082000,-0.020000,-0.061000
3.306000,-0.081000,-0.020000,-0.061000
3.326000,-0.081000,-0.019000,-0.060000
3.346000,-0.080000,-0.019000,-0.060000
3.366000,-0.080000,-0.018000,-0.059000
3.386000,-0.080000,-0.018000,-0.059000
3.406000,-0.079000,-0.017000,-0.058000
3.426000,-0.079000,-0.017000,-0.058000
3.446000,-0.079000,-0.017000,-0.057000
3.466000,-0.079000,-0.016000,-0.057000
3.486000,-0.079000,-0.016000,-0.057000
3.506000,-0.078000,-0.015000,-0.056000
3.526000,-0.077000,-0.015000,-0.056000
3.546000,-0.077000,-0.014000,-0.055000
3.566000,-0.077000,-0.014000,-0.055000
3.586000,-0.077000,-0.014000,-0.055000
3.606000,-0.077000,-0.013000,-0.054000
3.626000,-0.076000,-0.013000,-0.054000
3.646000,-0.076000,-0.012000,-0.053000
3.666000,-0.075000,-0.012000,-0.053000
3.686000,-0.075000,-0.012000,-0.053000
3.706000,-0.075000,-0.011000,-0.052000
3.726000,-0.074000,-0.011000,-0.052000
3.746000,-0.074000,-0.011000,-0.052000
3.766000,-0.074000,-0.010000,-0.052000
3.786000,-0.073000,-0.010000,-0.051000
3.806000,-0.073000,-0.010000,-0.051000
3.826000,-0.073000,-0.009000,-0.050000
3.846000,-0.073000,-0.009000,-0.050000
3.866000,-0.072000,-0.009000,-0.050000
3.886000,-0.072000,-0.009000,-0.050000
3.906000,-0.072000,-0.008000,-0.049000
3.926000,-0.072000,-0.008000,-0.049000
3.946000,-0.072000,-0.008000,-0.048000
3.966000,-0.071000,-0.007000,-0.048000
3.986000,-0.070000,-0.007000,-0.048000
4.006000,-0.070000,-0.007000,-0.048000
4.026000,-0.070000,-0.007000,-0.047000
4.046000,-0.070000,-0.006000,-0.047000
4.066000,-0.070000,-0.006000,-0.047000
4.086000,-0.070000,-0.006000,-0.046000
4.106000,-0.069000,-0.005000,-0.046000
4.126000,-0.069000,-0.005000,-0.046000
4.146000,-0.069000,-0.005000,-0.045000
4.166000,-0.069000,-0.005000,-0.045000
4.186000,-0.069000,-0.004000,-0.045000
4.206000,-0.068000,-0.004000,-0.045000
4.226000,-0.068000,-0.004000,-0.044000
4.246000,-0.068000,-0.003000,-0.044000
4.266000,-0.068000,-0.003000,-0.044000
4.286000,-0.068000,-0.003000,-0.043000
4.306000,-0.068000,-0.003000,-0.043000
4.326000,-0.067000,-0.002000,-0.043000
4.346000,-0.067000,-0.002000,-0.042000
4.366000,-0.067000,-0.002000,-0.042000
4.386000,-0.067000,-0.001000,-0.042000
4.406000,-0.067000,-0.001000,-0.042000
4.426000,-0.066000,-0.001000,-0.041000
4.446000,-0.066000,-0.001000,-0.041000
4.466000,-0.066000,-0.001000,-0.041000
4.486000,-0.066000,0.000000,-0.041000
4.506000,-0.066000,0.000000,-0.040000
4.526000,-0.066000,0.000000,-0.040000
4.546000,-0.066000,0.000000,-0.040000
4.566000,-0.066000,0.001000,-0.039000
4.586000,-0.065000,0.001000,-0.039000
4.606000,-0.065000,0.001000,-0.039000
4.626000,-0.065000,0.001000,-0.039000
4.646000,-0.065000,0.002000,-0.038000
4.666000,-0.065000,0.002000,-0.038000
4.686000,-0.065000,0.002000,-0.038000
4.706000,-0.064000,0.002000,-0.038000
4.726000,-0.064000,0.002000,-0.038000
4.746000,-0.064000,0.003000,-0.037000
4.766000,-0.064000,0.003000,-0.037000
4.786000,-0.064000,0.003000,-0.037000
4.806000,-0.064000,0.003000,-0.037000
4.826000,-0.064000,0.003000,-0.036000
4.846000,-0.064000,0.003000,-0.036000
4.866000,-0.064000,0.004000,-0.036000
4.886000,-0.064000,0.004000,-0.036000
4.906000,-0.063000,0.004000,-0.036000
4.926000,-0.063000,0.004000,-0.035000
4.946000,-0.063000,0.004000,-0.035000
4.966000,-0.063000,0.004000,-0.035000
4.986000,-0.064000,0.004000,-0.035000
5.006000,-0.063000,0.005000,-0.035000
5.026000,-0.063000,0.005000,-0.034000
5.046000,-0.063000,0.005000,-0.034000
5.066000,-0.063000,0.006000,-0.034000
5.086000,-0.063000,0.006000,-0.034000
5.106000,-0.063000,0.007000,-0.033000
5.126000,-0.064000,0.007000,-0.032000
5.146000,-0.065000,0.008000,-0.032000
5.166000,-0.066000,0.008000,-0.031000
5.186000,-0.067000,0.008000,-0.030000
5.206000,-0.069000,0.008000,-0.029000
5.226000,-0.071000,0.008000,-0.028000
5.246000,-0.076000,0.007000,-0.027000
5.266000,-0.080000,0.007000,-0.026000
5.286000,-0.083000,0.006000,-0.025000
5.306000,-0.085000,0.006000,-0.025000
5.326000,-0.087000,0.005000,-0.024000
5.346000,-0.089000,0.003000,-0.024000
5.366000,-0.088000,0.002000,-0.024000
5.386000,-0.087000,0.000000,-0.024000
5.406000,-0.088000,-0.001000,-0.025000
5.426000,-0.092000,-0.003000,-0.027000
5.446000,-0.094000,-0.004000,-0.028000
5.466000,-0.096000,-0.005000,-0.029000
5.486000,-0.096000,-0.005000,-0.030000
5.506000,-0.097000,-0.004000,-0.031000
5.526000,-0.099000,-0.003000,-0.033000
5.546000,-0.101000,-0.003000,-0.034000
5.566000,-0.102000,-0.001000,-0.034000
5.586000,-0.101000,0.003000,-0.033000
5.606000,-0.100000,0.007000,-0.032000
5.626000,-0.099000,0.012000,-0.032000
5.646000,-0.097000,0.018000,-0.030000
5.666000,-0.095000,0.026000,-0.029000
5.686000,-0.093000,0.034000,-0.027000
5.706000,-0.093000,0.043000,-0.025000
5.726000,-0.097000,0.051000,-0.024000
5.746000,-0.103000,0.059000,-0.022000
5.766000,-0.108000,0.067000,-0.020000
5.786000,-0.112000,0.076000,-0.018000
5.806000,-0.115000,0.084000,-0.016000
5.826000,-0.120000,0.091000,-0.015000
5.846000,-0.128000,0.097000,-0.014000
5.866000,-0.131000,0.103000,-0.013000
5.886000,-0.123000,0.108000,-0.011000
5.906000,-0.112000,0.113000,-0.008000
5.926000,-0.107000,0.118000,-0.007000
5.946000,-0.113000,0.123000,-0.008000
5.966000,-0.125000,0.127000,-0.012000
5.986000,-0.132000,0.130000,-0.015000
6.006000,-0.127000,0.133000,-0.017000
6.026000,-0.115000,0.137000,-0.018000
6.046000,-0.102000,0.140000,-0.019000
6.066000,-0.088000,0.143000,-0.020000
6.086000,-0.076000,0.147000,-0.021000
6.106000,-0.070000,0.151000,-0.023000
6.126000,-0.070000,0.155000,-0.027000
6.146000,-0.076000,0.159000,-0.033000
6.166000,-0.080000,0.162000,-0.039000
6.186000,-0.079000,0.164000,-0.045000
6.206000,-0.078000,0.167000,-0.050000
6.226000,-0.078000,0.169000,-0.057000
6.246000,-0.079000,0.171000,-0.064000
6.266000,-0.079000,0.173000,-0.071000
6.286000,-0.076000,0.175000,-0.078000
6.306000,-0.072000,0.177000,-0.086000
6.326000,-0.070000,0.179000,-0.093000
6.346000,-0.066000,0.182000,-0.100000
6.366000,-0.058000,0.184000,-0.106000
6.386000,-0.045000,0.186000,-0.109000
6.406000,-0.028000,0.188000,-0.110000
6.426000,-0.015000,0.189000,-0.112000
6.446000,-0.008000,0.191000,-0.114000
6.466000,-0.004000,0.193000,-0.116000
6.486000,-0.003000,0.194000,-0.118000
6.506000,-0.005000,0.195000,-0.120000
6.526000,-0.009000,0.196000,-0.121000
6.546000,-0.013000,0.198000,-0.122000
6.566000,-0.018000,0.199000,-0.122000
6.586000,-0.019000,0.201000,-0.122000
6.606000,-0.019000,0.203000,-0.122000
6.626000,-0.020000,0.204000,-0.121000
6.646000,-0.022000,0.204000,-0.120000
6.666000,-0.026000,0.205000,-0.119000
6.686000,-0.027000,0.204000,-0.118000
6.706000,-0.028000,0.204000,-0.117000
6.726000,-0.028000,0.203000,-0.115000
6.746000,-0.029000,0.203000,-0.114000
6.766000,-0.030000,0.203000,-0.114000
6.786000,-0.029000,0.203000,-0.113000
6.806000,-0.028000,0.202000,-0.112000
6.826000,-0.027000,0.202000,-0.112000
6.846000,-0.027000,0.201000,-0.112000
6.866000,-0.028000,0.201000,-0.112000
6.886000,-0.026000,0.200000,-0.112000
6.906000,-0.024000,0.199000,-0.112000
6.926000,-0.023000,0.198000,-0.112000
6.946000,-0.021000,0.197000,-0.111000
6.966000,-0.020000,0.196000,-0.111000
6.986000,-0.019000,0.195000,-0.111000
7.006000,-0.018000,0.193000,-0.110000
7.026000,-0.018000,0.192000,-0.110000
7.046000,-0.017000,0.191000,-0.110000
7.066000,-0.016000,0.189000,-0.109000
7.086000,-0.015000,0.187000,-0.109000
7.106000,-0.015000,0.185000,-0.109000
7.126000,-0.015000,0.184000,-0.109000
7.146000,-0.014000,0.183000,-0.109000
7.166000,-0.013000,0.182000,-0.109000
7.186000,-0.012000,0.181000,-0.108000
7.206000,-0.011000,0.180000,-0.108000
7.226000,-0.012000,0.179000,-0.108000
7.246000,-0.011000,0.178000,-0.108000
7.266000,-0.008000,0.176000,-0.107000
7.286000,-0.006000,0.175000,-0.106000
7.306000,-0.005000,0.173000,-0.105000
7.326000,-0.003000,0.172000,-0.104000
7.346000,-0.002000,0.171000,-0.103000
7.366000,-0.001000,0.169000,-0.102000
7.386000,0.000000,0.168000,-0.101000
7.406000,0.000000,0.167000,-0.100000
7.426000,0.000000,0.165000,-0.099000
7.446000,0.000000,0.164000,-0.099000
7.466000,0.000000,0.162000,-0.098000
7.486000,-0.001000,0.161000,-0.097000
7.506000,-0.001000,0.160000,-0.096000
7.526000,-0.002000,0.159000,-0.095000
7.546000,-0.002000,0.157000,-0.094000
7.566000,-0.003000,0.156000,-0.093000
7.586000,-0.003000,0.155000,-0.092000
7.606000,-0.004000,0.153000,-0.092000
7.626000,-0.005000,0.152000,-0.091000
7.646000,-0.006000,0.151000,-0.090000
7.666000,-0.007000,0.150000,-0.090000
7.686000,-0.007000,0.149000,-0.089000
7.706000,-0.007000,0.147000,-0.088000
7.726000,-0.008000,0.146000,-0.088000
7.746000,-0.009000,0.145000,-0.087000
7.766000,-0.009000,0.143000,-0.086000
7.786000,-0.009000,0.142000,-0.085000
7.806000,-0.010000,0.141000,-0.084000
7.826000,-0.011000,0.139000,-0.083000
7.846000,-0.012000,0.138000,-0.083000
7.866000,-0.012000,0.137000,-0.082000
7.886000,-0.013000,0.135000,-0.081000
7.906000,-0.014000,0.134000,-0.080000
7.926000,-0.015000,0.133000,-0.079000
7.946000,-0.016000,0.132000,-0.079000
7.966000,-0.016000,0.131000,-0.078000
7.986000,-0.017000,0.130000,-0.077000
