accel_time_list,accel_x_list,accel_y_list,accel_z_list
0.373,-10.37168,-3.70383,3.900155
0.393,-10.34056,-3.590106,3.915717
0.413,-10.35094,-3.504981,3.910528
0.433,-10.24953,-3.401745,3.857044
0.453,-10.15341,-3.274196,3.767809
0.473,-10.06144,-3.134886,3.668424
0.493,-9.956518,-3.013797,3.573708
0.513,-9.866007,-2.906517,3.454176
0.533,-9.794083,-2.828361,3.31752
0.553,-9.702862,-2.78113,3.179832
0.573,-9.601715,-2.762116,3.062591
0.593,-9.529477,-2.757038,2.962164
0.613,-9.49058,-2.742143,2.859818
0.633,-9.456958,-2.724307,2.755385
0.653,-9.420532,-2.717424,2.658165
0.673,-9.403775,-2.711575,2.574128
0.693,-9.40027,-2.688911,2.500947
0.713,-9.374343,-2.649854,2.445984
0.733,-9.316947,-2.610879,2.406939
0.753,-9.281847,-2.573942,2.375529
0.773,-9.285983,-2.523852,2.351164
0.793,-9.303895,-2.463029,2.337321
0.813,-9.323421,-2.41737,2.350505
0.833,-9.325945,-2.377911,2.385157
0.853,-9.28564,-2.333345,2.420497
0.873,-9.19637,-2.263513,2.449627
0.893,-9.100551,-2.182823,2.485434
0.913,-9.050084,-2.119187,2.539342
0.933,-9.052217,-2.07532,2.607695
0.953,-9.079923,-2.035207,2.676198
0.973,-9.097583,-1.976952,2.738171
0.993,-9.108197,-1.89953,2.802201
1.013,-9.120892,-1.817573,2.868136
1.033,-9.113725,-1.731265,2.929557
1.053,-9.086969,-1.644376,2.98338
1.073,-9.053414,-1.556293,3.02659
1.093,-9.004939,-1.469901,3.058465
1.113,-8.938297,-1.403734,3.078437
1.133,-8.867315,-1.367499,3.085791
1.153,-8.79999,-1.35526,3.080382
1.173,-8.735114,-1.355179,3.065192
1.193,-8.678231,-1.356372,3.044698
1.213,-8.644812,-1.359161,3.021245
1.233,-8.648767,-1.361577,2.994604
1.253,-8.692223,-1.365636,2.96547
1.273,-8.741147,-1.373607,2.936174
1.293,-8.759454,-1.383898,2.901968
1.313,-8.758575,-1.397494,2.859308
1.333,-8.75479,-1.412009,2.810258
1.353,-8.761311,-1.42739,2.768267
1.373,-8.77669,-1.447898,2.737613
1.393,-8.780643,-1.475809,2.714606
1.413,-8.766583,-1.508502,2.69014
1.433,-8.748415,-1.541003,2.664392
1.453,-8.732173,-1.567232,2.641371
1.473,-8.706048,-1.587966,2.624922
1.493,-8.669749,-1.607315,2.612356
1.513,-8.631507,-1.628297,2.597143
1.533,-8.601151,-1.651606,2.584324
1.553,-8.580648,-1.673484,2.579793
1.573,-8.561745,-1.69367,2.581081
1.593,-8.540382,-1.707651,2.582778
1.613,-8.513875,-1.721073,2.58925
1.633,-8.487593,-1.742247,2.607718
1.653,-8.465256,-1.78245,2.61609
1.673,-8.450893,-1.801216,2.644028
1.693,-8.443472,-1.784106,2.692308
1.713,-8.435597,-1.758617,2.745324
1.733,-8.417714,-1.758494,2.778692
1.753,-8.382786,-1.799656,2.793228
1.773,-8.330905,-1.855581,2.795976
1.793,-8.265207,-1.90114,2.806807
1.813,-8.190054,-1.926294,2.838066
1.833,-8.116493,-1.952302,2.883466
1.853,-8.04483,-1.997669,2.930549
1.873,-7.976276,-2.049875,2.967282
1.893,-7.930305,-2.095675,2.996178
1.913,-7.926274,-2.134383,3.025376
1.933,-7.917295,-2.164488,3.021015
1.953,-7.838529,-2.213534,3.009073
1.973,-7.764847,-2.31247,3.002661
1.993,-7.938783,-2.435071,2.924156
2.013,-8.445778,-2.438201,2.712795
2.033,-8.74024,-2.359452,2.453654
2.053,-8.182535,-2.286999,2.110032
2.073,-6.952478,-2.776227,2.105811
2.093,-6.021981,-3.826901,2.604876
2.113,-5.867723,-4.089194,3.175541
2.133,-5.513154,-3.13614,3.388371
2.153,-5.176387,-1.344037,3.801437
2.173,-5.561989,0.738401,4.372039
2.193,-5.921059,1.78222,4.782726
2.213,-6.894536,2.483402,6.066989
2.233,-11.20632,8.838062,8.221533
2.253,-9.325934,12.80733,8.870157
2.273,-8.097573,9.747808,8.013075
2.293,-7.675615,5.438608,6.635801
2.313,-7.098535,2.635182,5.544574
2.333,-6.582275,1.035698,4.743638
2.353,-6.280845,-0.157514,4.22089
4.145,-6.329351,0.45483,4.449373
4.165,-6.368327,0.901111,4.634293
4.185,-6.400534,1.243666,4.791348
4.205,-6.427432,1.51018,4.923578
4.225,-6.452275,1.724473,5.036431
4.245,-6.473076,1.900489,5.131858
4.265,-6.492739,2.049301,5.214715
4.285,-6.508892,2.173212,5.28767
4.305,-6.521713,2.280312,5.351609
4.325,-6.534058,2.372003,5.408813
4.345,-6.545874,2.450354,5.458662
4.365,-6.55553,2.516136,5.505598
4.385,-6.563679,2.573789,5.549168
4.405,-6.570973,2.62464,5.589466
4.425,-6.578268,2.670719,5.623701
4.445,-6.585462,2.712608,5.654584
4.465,-6.591784,2.749143,5.683252
4.485,-6.597522,2.782128,5.710474
4.505,-6.602742,2.815032,5.735919
4.525,-6.60741,2.84411,5.757967
4.545,-6.612347,2.870459,5.779729
4.565,-6.616214,2.895111,5.799454
4.585,-6.620703,2.918458,5.81751
4.605,-6.62414,2.938158,5.835229
4.625,-6.627366,2.956249,5.853868
4.645,-6.630835,2.972626,5.869949
4.665,-6.634104,2.987716,5.884456
4.685,-6.6376,3.000555,5.898869
4.705,-6.640506,3.012974,5.912614
4.725,-6.643128,3.025565,5.926031
4.745,-6.645235,3.038088,5.938868
4.765,-6.646988,3.049432,5.950763
4.785,-6.648354,3.059765,5.962381
4.805,-6.649595,3.068603,5.973485
4.825,-6.651006,3.078268,5.98411
4.845,-6.652408,3.088631,5.994105
4.865,-6.65424,3.098203,6.003331
4.885,-6.65583,3.106847,6.01154
4.905,-6.65688,3.115004,6.019554
4.925,-6.658296,3.123749,6.027781
4.945,-6.659654,3.130888,6.035487
4.965,-6.661104,3.136879,6.043521
4.985,-6.66211,3.14277,6.051064
5.005,-6.663172,3.147894,6.058564
5.025,-6.664472,3.152189,6.065507
5.045,-6.665494,3.156838,6.072432
5.065,-6.666614,3.162398,6.078892
5.085,-6.667649,3.167888,6.085206
5.105,-6.668691,3.1726,6.090997
5.125,-6.669271,3.177276,6.096859
5.145,-6.67004,3.182113,6.10172
5.165,-6.670906,3.187729,6.10627
5.185,-6.671663,3.19276,6.11111
5.205,-6.672434,3.19696,6.116049
5.225,-6.673259,3.2011,6.120952
5.245,-6.674366,3.204914,6.125949
5.265,-6.675438,3.208286,6.130615
5.285,-6.676254,3.211151,6.134756
5.305,-6.67745,3.213491,6.138272
5.325,-6.678247,3.214995,6.142041
5.345,-6.678736,3.217234,6.145812
5.365,-6.679492,3.219807,6.150056
5.385,-6.680017,3.222137,6.153632
5.405,-6.681248,3.224197,6.157484
5.425,-6.682952,3.225259,6.16096
5.445,-6.684043,3.227628,6.164186
5.465,-6.684281,3.232188,6.167211
5.485,-6.684319,3.236658,6.170077
5.505,-6.683745,3.238906,6.173614
5.525,-6.683345,3.240908,6.177514
5.545,-6.682268,3.243068,6.181798
5.565,-6.68094,3.245449,6.18649
5.585,-6.679095,3.24773,6.191268
5.605,-6.677294,3.250981,6.196805
5.625,-6.675446,3.254997,6.20144
5.645,-6.673522,3.259248,6.20626
5.665,-6.672285,3.263227,6.210573
5.685,-6.670875,3.267338,6.213941
5.705,-6.669839,3.272099,6.216555
5.725,-6.669222,3.276232,6.218787
5.745,-6.668508,3.279854,6.221779
5.765,-6.66745,3.283643,6.224794
5.785,-6.666443,3.287905,6.227554
5.805,-6.665783,3.292289,6.229948
5.825,-6.665378,3.296421,6.232045
5.845,-6.664452,3.300675,6.233886
5.865,-6.662444,3.305377,6.236302
5.885,-6.662867,3.309265,6.239187
5.905,-6.665851,3.30985,6.241261
5.925,-6.667888,3.309428,6.243032
5.945,-6.667331,3.311152,6.244624
5.965,-6.665659,3.314748,6.246236
5.985,-6.665086,3.317564,6.248172
6.005,-6.665533,3.317545,6.250642
6.025,-6.66614,3.315781,6.253495
6.045,-6.666278,3.313699,6.255673
6.065,-6.666341,3.312176,6.258579
6.085,-6.666452,3.310713,6.26362
6.105,-6.666395,3.307788,6.269622
6.125,-6.665284,3.303943,6.275267
7.831,-6.664927,3.299068,6.280844
7.851,-6.66486,3.293704,6.286176
7.871,-6.665321,3.288299,6.291471
7.891,-6.665682,3.283524,6.296604
7.911,-6.665464,3.278958,6.30145
7.931,-6.665201,3.274367,6.306569
7.951,-6.665179,3.269626,6.311832
7.971,-6.665206,3.264862,6.316463
7.991,-6.66449,3.259752,6.32107
8.011,-6.663805,3.254076,6.325675
8.031,-6.66296,3.248188,6.330894
8.051,-6.6632,3.243373,6.336497
8.071,-6.664564,3.239905,6.341022
8.091,-6.664836,3.236277,6.343956
8.111,-6.665489,3.231816,6.347702
8.131,-6.666877,3.22656,6.351286
8.151,-6.667701,3.222211,6.355218
8.171,-6.66957,3.217426,6.359302
8.191,-6.672139,3.209625,6.363944
8.211,-6.674203,3.20013,6.369353
8.231,-6.676438,3.189078,6.374899
8.251,-6.677071,3.176388,6.381085
8.271,-6.67614,3.163538,6.389435
8.291,-6.676081,3.14986,6.398205
8.311,-6.67698,3.134953,6.405809
8.331,-6.677655,3.120144,6.412165
8.351,-6.677917,3.107,6.418863
8.371,-6.676571,3.097391,6.426333
8.391,-6.674808,3.090844,6.433609
8.411,-6.674666,3.08424,6.439542
8.431,-6.675724,3.076014,6.444052
8.451,-6.676627,3.066681,6.448254
8.471,-6.677545,3.056651,6.453443
8.491,-6.678788,3.046407,6.459394
8.511,-6.680019,3.035224,6.46574
8.531,-6.679898,3.022689,6.47231
8.551,-6.678963,3.011018,6.478743
8.571,-6.679259,3.00143,6.48401
8.591,-6.68118,2.993491,6.488099
8.611,-6.683657,2.985166,6.491189
8.631,-6.686659,2.976576,6.493458
8.651,-6.68987,2.969891,6.494843
8.671,-6.69214,2.966179,6.496549
8.691,-6.693334,2.963069,6.498502
8.711,-6.694444,2.957716,6.501081
8.731,-6.696524,2.951147,6.504281
8.751,-6.698009,2.945625,6.507329
8.771,-6.698163,2.940733,6.510922
8.791,-6.698171,2.935268,6.514694
8.811,-6.698107,2.9289,6.518739
8.831,-6.698259,2.92305,6.523199
8.851,-6.698817,2.917857,6.526393
8.871,-6.698723,2.913459,6.529268
8.891,-6.699156,2.909942,6.532618
8.911,-6.700639,2.906341,6.535813
8.931,-6.701149,2.903829,6.538259
8.951,-6.700361,2.902228,6.540991
8.971,-6.699965,2.900356,6.544223
8.991,-6.701439,2.896851,6.547207
9.011,-6.702635,2.892016,6.550808
9.031,-6.70303,2.887301,6.55478
9.051,-6.702295,2.882993,6.559166
9.071,-6.699532,2.878081,6.564706
9.091,-6.695935,2.871566,6.572154
9.111,-6.694386,2.862722,6.579432
9.131,-6.693594,2.853656,6.585894
9.151,-6.693839,2.847218,6.591526
9.171,-6.691137,2.839743,6.594516
9.191,-6.687576,2.832582,6.584451
9.211,-6.688097,2.836434,6.594
9.231,-6.694695,2.830791,6.603908
9.251,-6.70259,2.814981,6.610293
9.271,-6.707486,2.795162,6.616112
9.291,-6.702804,2.780211,6.6207
9.311,-6.683181,2.779847,6.623422
9.331,-6.677976,2.788392,6.633324
9.351,-6.67979,2.792782,6.64315
9.371,-6.678282,2.784152,6.646533
9.391,-6.674036,2.778337,6.648686
9.411,-6.669736,2.784049,6.654049
9.431,-6.666772,2.786279,6.658401
9.451,-6.659936,2.781161,6.660961
9.471,-6.664684,2.773964,6.668596
9.491,-6.670054,2.767006,6.674957
9.511,-6.669649,2.756933,6.680177
9.531,-6.667476,2.752611,6.686327
9.551,-6.66408,2.752619,6.692415
9.571,-6.662825,2.740703,6.698059
9.591,-6.66199,2.726296,6.702761
9.611,-6.655272,2.711148,6.704183
9.631,-6.657888,2.699263,6.710284
9.651,-6.65806,2.695351,6.715055
9.671,-6.655668,2.695356,6.720329
9.691,-6.656125,2.693901,6.724401
9.711,-6.655165,2.692245,6.727523
9.731,-6.651724,2.690437,6.730111
9.751,-6.648917,2.687738,6.733343
9.771,-6.647502,2.684827,6.737021
9.791,-6.645982,2.683262,6.740448
9.811,-6.646727,2.683603,6.74396
9.898,-6.647369,2.682673,6.747844
9.918,-6.648771,2.679117,6.751641
9.938,-6.649058,2.677394,6.755519
9.958,-6.648479,2.674155,6.759336
9.978,-6.646614,2.676287,6.762539
9.998,-6.645126,2.661855,6.764465
10.018,-6.647868,2.658747,6.769005
10.038,-6.64608,2.660866,6.773237
10.058,-6.643689,2.660713,6.776732
10.078,-6.642159,2.660562,6.780408
10.098,-6.640739,2.658305,6.783951
10.118,-6.641346,2.655401,6.788727
10.138,-6.640486,2.649724,6.79202
10.158,-6.639491,2.643506,6.794322
10.178,-6.639487,2.641181,6.797917
10.198,-6.638717,2.638519,6.801069
10.218,-6.638242,2.634185,6.804525
10.238,-6.636623,2.631354,6.808234
10.258,-6.634804,2.626804,6.811882
10.278,-6.633794,2.622179,6.815302
10.298,-6.63356,2.619971,6.819071
10.318,-6.633471,2.61745,6.822898
10.338,-6.632139,2.613973,6.826256
10.358,-6.631084,2.610027,6.829867
10.378,-6.63047,2.606432,6.833706
10.398,-6.629718,2.601916,6.837315
10.418,-6.628855,2.597875,6.840911
10.438,-6.628646,2.593157,6.844065
10.458,-6.627841,2.588605,6.847163
10.478,-6.628098,2.584818,6.850637
10.498,-6.626867,2.580589,6.854125
10.518,-6.625721,2.576379,6.857074
10.538,-6.625639,2.572618,6.860281
10.558,-6.625487,2.569062,6.863576
10.578,-6.624594,2.565997,6.867006
10.598,-6.622895,2.563417,6.870162
10.618,-6.621884,2.560959,6.872641
10.638,-6.62074,2.557902,6.875214
10.658,-6.620613,2.55289,6.878
10.678,-6.620989,2.549722,6.881166
10.698,-6.621075,2.547521,6.884396
10.718,-6.621375,2.544264,6.887833
10.738,-6.621648,2.538813,6.891523
10.758,-6.620243,2.533249,6.894529
10.778,-6.61945,2.528267,6.897266
10.798,-6.619072,2.525226,6.899952
10.818,-6.619057,2.521977,6.902683
10.838,-6.618827,2.516844,6.905435
10.858,-6.61915,2.513272,6.908206
10.878,-6.619709,2.510453,6.9104
10.898,-6.621435,2.508261,6.912595
10.918,-6.620989,2.50566,6.915487
10.938,-6.619782,2.499541,6.917607
10.958,-6.619976,2.491066,6.91827
10.978,-6.618348,2.489092,6.920985
10.998,-6.615946,2.48855,6.924104
11.018,-6.614191,2.486433,6.926713
11.038,-6.61274,2.482494,6.928697
11.058,-6.612477,2.474477,6.929536
11.078,-6.614444,2.46551,6.930774
11.098,-6.612919,2.463312,6.934202
11.118,-6.613492,2.460155,6.937764
11.138,-6.614443,2.450182,6.941218
11.158,-6.611888,2.439279,6.943991
11.178,-6.610916,2.417712,6.941804
11.198,-6.613448,2.415154,6.945218
11.218,-6.617823,2.424713,6.949411
11.238,-6.620574,2.423307,6.951982
11.258,-6.620137,2.413606,6.951224
11.278,-6.621668,2.404937,6.951168
11.298,-6.622992,2.405189,6.95365
11.318,-6.620352,2.415015,6.956059
11.338,-6.618744,2.420313,6.956769
11.358,-6.615763,2.425439,6.956656
11.378,-6.617601,2.419764,6.954726
11.398,-6.620713,2.418215,6.955066
11.418,-6.621065,2.42736,6.957413
11.438,-6.620168,2.434451,6.95921
11.458,-6.620118,2.430409,6.956105
11.478,-6.620691,2.427294,6.955162
11.498,-6.621522,2.427058,6.957173
11.518,-6.623302,2.420457,6.955549
11.538,-6.628368,2.418112,6.956335
11.558,-6.629553,2.416699,6.957281
11.578,-6.629553,2.418486,6.959726
11.598,-6.628979,2.420996,6.962529
11.618,-6.637029,2.408398,6.960492
11.638,-6.634871,2.40172,6.961444
11.658,-6.638002,2.39937,6.963201
11.678,-6.636888,2.402407,6.964653
11.698,-6.636623,2.400122,6.964774
11.718,-6.638515,2.398555,6.966641
11.738,-6.639096,2.391496,6.967675
11.758,-6.638762,2.389033,6.968484
11.778,-6.638382,2.391312,6.968973
11.798,-6.639634,2.390527,6.969625
11.818,-6.640707,2.387379,6.971036
11.838,-6.641289,2.381941,6.970614
11.858,-6.641986,2.381082,6.971394
11.878,-6.642987,2.378483,6.972979
