gyro_time_list,gyro_x_list,gyro_y_list,gyro_z_list
0.016000,0.090000,0.375000,0.646000
0.036000,0.024000,0.434000,0.681000
0.056000,-0.028000,0.520000,0.677000
0.076000,-0.082000,0.623000,0.724000
0.096000,-0.195000,0.711000,0.826000
0.116000,-0.412000,0.780000,0.920000
0.136000,-0.625000,0.864000,0.973000
0.156000,-0.742000,0.967000,1.047000
0.176000,-0.799000,1.078000,1.142000
0.196000,-0.850000,1.193000,1.244000
0.216000,-0.911000,1.313000,1.350000
0.236000,-0.973000,1.438000,1.450000
0.256000,-1.042000,1.549000,1.548000
0.276000,-1.123000,1.642000,1.642000
0.296000,-1.216000,1.731000,1.731000
0.316000,-1.318000,1.824000,1.814000
0.336000,-1.426000,1.918000,1.891000
0.356000,-1.544000,2.007000,1.959000
0.376000,-1.672000,2.087000,2.020000
0.396000,-1.798000,2.151000,2.076000
0.416000,-1.901000,2.191000,2.132000
0.436000,-1.974000,2.204000,2.180000
0.456000,-2.020000,2.191000,2.218000
0.476000,-2.039000,2.153000,2.243000
0.496000,-2.056000,2.094000,2.248000
0.516000,-2.082000,2.015000,2.229000
0.536000,-2.105000,1.916000,2.191000
0.556000,-2.138000,1.796000,2.140000
0.576000,-2.197000,1.658000,2.072000
0.596000,-2.271000,1.508000,1.988000
0.616000,-2.334000,1.345000,1.896000
0.636000,-2.380000,1.170000,1.796000
0.656000,-2.412000,0.990000,1.688000
0.676000,-2.420000,0.812000,1.574000
0.696000,-2.395000,0.639000,1.461000
0.716000,-2.343000,0.471000,1.347000
0.736000,-2.272000,0.315000,1.234000
0.756000,-2.185000,0.172000,1.125000
0.776000,-2.076000,0.038000,1.021000
0.796000,-1.957000,-0.085000,0.924000
0.816000,-1.835000,-0.196000,0.833000
0.836000,-1.710000,-0.295000,0.750000
0.856000,-1.581000,-0.387000,0.675000
0.876000,-1.458000,-0.470000,0.606000
0.896000,-1.349000,-0.542000,0.542000
0.916000,-1.252000,-0.605000,0.483000
0.936000,-1.161000,-0.662000,0.428000
0.956000,-1.081000,-0.715000,0.377000
0.976000,-1.013000,-0.765000,0.330000
0.996000,-0.959000,-0.808000,0.284000
1.016000,-0.914000,-0.843000,0.242000
1.036000,-0.873000,-0.872000,0.203000
1.056000,-0.836000,-0.898000,0.168000
1.076000,-0.806000,-0.922000,0.136000
1.096000,-0.781000,-0.940000,0.105000
1.116000,-0.756000,-0.951000,0.076000
1.136000,-0.724000,-0.958000,0.051000
1.156000,-0.684000,-0.967000,0.028000
1.176000,-0.640000,-0.976000,0.006000
1.196000,-0.595000,-0.982000,-0.014000
1.216000,-0.548000,-0.984000,-0.033000
1.236000,-0.500000,-0.986000,-0.051000
1.256000,-0.452000,-0.988000,-0.067000
1.276000,-0.407000,-0.988000,-0.082000
1.296000,-0.364000,-0.989000,-0.096000
1.316000,-0.328000,-0.991000,-0.112000
1.336000,-0.301000,-0.982000,-0.128000
1.356000,-0.281000,-0.958000,-0.140000
1.376000,-0.263000,-0.928000,-0.146000
1.396000,-0.248000,-0.906000,-0.146000
1.416000,-0.235000,-0.899000,-0.145000
1.436000,-0.244000,-0.891000,-0.141000
1.456000,-0.294000,-0.873000,-0.144000
1.476000,-0.351000,-0.873000,-0.161000
1.496000,-0.365000,-0.880000,-0.189000
1.516000,-0.335000,-0.860000,-0.218000
1.536000,-0.318000,-0.798000,-0.242000
1.556000,-0.328000,-0.686000,-0.254000
1.576000,-0.311000,-0.565000,-0.251000
1.596000,-0.326000,-0.467000,-0.263000
1.616000,-0.359000,-0.392000,-0.272000
1.636000,-0.208000,-0.542000,-0.349000
1.656000,-0.042000,-0.702000,-0.415000
1.676000,0.040000,-0.796000,-0.487000
1.696000,-0.036000,-0.786000,-0.430000
1.716000,-0.032000,-0.698000,-0.355000
1.736000,0.043000,-0.696000,-0.267000
1.756000,0.031000,-0.725000,-0.138000
1.776000,-0.104000,-0.748000,-0.025000
1.796000,-0.235000,-0.751000,0.003000
1.816000,-0.183000,-0.705000,-0.002000
1.836000,0.018000,-0.630000,-0.007000
1.856000,0.238000,-0.567000,-0.025000
1.876000,0.353000,-0.535000,-0.056000
1.896000,0.348000,-0.521000,-0.096000
1.916000,0.363000,-0.510000,-0.128000
1.936000,0.425000,-0.488000,-0.145000
1.956000,0.464000,-0.453000,-0.157000
1.976000,0.426000,-0.406000,-0.170000
1.996000,0.331000,-0.348000,-0.185000
2.016000,0.215000,-0.275000,-0.200000
2.036000,0.099000,-0.181000,-0.224000
2.056000,0.012000,-0.061000,-0.250000
2.076000,0.019000,0.074000,-0.267000
2.096000,0.077000,0.096000,-0.267000
2.116000,0.210000,0.017000,-0.277000
2.136000,0.329000,-0.044000,-0.286000
2.156000,0.335000,-0.079000,-0.300000
2.176000,0.281000,-0.090000,-0.307000
2.196000,0.242000,-0.091000,-0.309000
2.216000,0.225000,-0.091000,-0.302000
2.236000,0.220000,-0.088000,-0.287000
2.256000,0.214000,-0.080000,-0.276000
2.276000,0.191000,-0.068000,-0.270000
2.296000,0.155000,-0.053000,-0.267000
2.316000,0.118000,-0.038000,-0.264000
2.336000,0.082000,-0.031000,-0.262000
2.356000,0.057000,-0.036000,-0.262000
2.376000,0.051000,-0.043000,-0.261000
2.396000,0.042000,-0.048000,-0.259000
2.416000,0.023000,-0.050000,-0.257000
2.436000,-0.005000,-0.051000,-0.254000
2.456000,-0.037000,-0.050000,-0.250000
2.476000,-0.066000,-0.049000,-0.245000
2.496000,-0.086000,-0.047000,-0.240000
2.516000,-0.095000,-0.046000,-0.236000
2.536000,-0.091000,-0.044000,-0.232000
2.556000,-0.083000,-0.042000,-0.228000
2.576000,-0.078000,-0.040000,-0.225000
2.596000,-0.075000,-0.039000,-0.221000
2.616000,-0.072000,-0.037000,-0.217000
2.636000,-0.070000,-0.036000,-0.214000
2.656000,-0.069000,-0.036000,-0.210000
2.676000,-0.070000,-0.035000,-0.207000
2.696000,-0.071000,-0.035000,-0.203000
2.716000,-0.072000,-0.034000,-0.199000
2.736000,-0.074000,-0.033000,-0.196000
2.756000,-0.076000,-0.032000,-0.193000
2.776000,-0.077000,-0.030000,-0.189000
2.796000,-0.076000,-0.029000,-0.186000
2.816000,-0.074000,-0.027000,-0.183000
2.836000,-0.070000,-0.025000,-0.179000
2.856000,-0.068000,-0.022000,-0.176000
2.876000,-0.065000,-0.021000,-0.173000
2.896000,-0.064000,-0.020000,-0.170000
2.916000,-0.062000,-0.019000,-0.167000
2.936000,-0.061000,-0.018000,-0.165000
2.956000,-0.061000,-0.017000,-0.163000
2.976000,-0.061000,-0.017000,-0.161000
2.996000,-0.063000,-0.017000,-0.159000
3.016000,-0.065000,-0.016000,-0.156000
3.036000,-0.066000,-0.016000,-0.154000
3.056000,-0.066000,-0.015000,-0.152000
3.076000,-0.064000,-0.014000,-0.150000
3.096000,-0.063000,-0.014000,-0.148000
3.116000,-0.062000,-0.013000,-0.146000
3.136000,-0.062000,-0.013000,-0.144000
3.156000,-0.062000,-0.012000,-0.142000
3.176000,-0.062000,-0.012000,-0.141000
3.196000,-0.062000,-0.011000,-0.139000
3.216000,-0.063000,-0.011000,-0.137000
3.236000,-0.063000,-0.011000,-0.136000
3.256000,-0.063000,-0.011000,-0.134000
3.276000,-0.062000,-0.010000,-0.133000
3.296000,-0.062000,-0.010000,-0.132000
3.316000,-0.061000,-0.010000,-0.130000
3.336000,-0.061000,-0.009000,-0.129000
3.356000,-0.062000,-0.009000,-0.127000
3.376000,-0.062000,-0.009000,-0.126000
3.396000,-0.062000,-0.008000,-0.125000
3.416000,-0.061000,-0.008000,-0.123000
3.436000,-0.061000,-0.008000,-0.122000
3.456000,-0.061000,-0.008000,-0.121000
3.476000,-0.061000,-0.007000,-0.120000
3.496000,-0.061000,-0.007000,-0.118000
3.516000,-0.061000,-0.007000,-0.117000
3.536000,-0.060000,-0.007000,-0.116000
3.556000,-0.060000,-0.006000,-0.115000
3.576000,-0.061000,-0.006000,-0.114000
3.596000,-0.061000,-0.006000,-0.113000
3.616000,-0.060000,-0.006000,-0.112000
3.636000,-0.060000,-0.005000,-0.110000
3.656000,-0.059000,-0.005000,-0.109000
3.676000,-0.059000,-0.005000,-0.108000
3.696000,-0.059000,-0.004000,-0.108000
3.716000,-0.059000,-0.004000,-0.107000
3.736000,-0.059000,-0.004000,-0.106000
3.756000,-0.059000,-0.004000,-0.105000
3.776000,-0.059000,-0.004000,-0.104000
3.796000,-0.059000,-0.003000,-0.103000
3.816000,-0.059000,-0.003000,-0.102000
3.836000,-0.059000,-0.003000,-0.101000
3.856000,-0.058000,-0.002000,-0.100000
3.876000,-0.058000,-0.002000,-0.099000
3.896000,-0.058000,-0.002000,-0.098000
3.916000,-0.058000,-0.002000,-0.098000
3.936000,-0.058000,-0.001000,-0.097000
3.956000,-0.058000,-0.001000,-0.096000
3.976000,-0.058000,-0.001000,-0.095000
3.996000,-0.058000,-0.001000,-0.094000
4.016000,-0.058000,0.000000,-0.093000
4.036000,-0.058000,0.000000,-0.092000
4.056000,-0.058000,0.000000,-0.092000
4.076000,-0.058000,0.000000,-0.091000
4.096000,-0.057000,0.001000,-0.090000
4.116000,-0.057000,0.001000,-0.089000
4.136000,-0.057000,0.001000,-0.088000
4.156000,-0.057000,0.002000,-0.088000
4.176000,-0.057000,0.002000,-0.087000
4.196000,-0.057000,0.002000,-0.086000
4.216000,-0.057000,0.002000,-0.085000
4.236000,-0.057000,0.003000,-0.085000
4.256000,-0.057000,0.003000,-0.084000
4.276000,-0.057000,0.003000,-0.083000
4.296000,-0.057000,0.003000,-0.082000
4.316000,-0.057000,0.003000,-0.082000
4.336000,-0.057000,0.004000,-0.081000
4.356000,-0.057000,0.004000,-0.080000
4.376000,-0.057000,0.004000,-0.080000
4.396000,-0.057000,0.004000,-0.079000
4.416000,-0.056000,0.005000,-0.078000
4.436000,-0.056000,0.005000,-0.078000
4.456000,-0.056000,0.005000,-0.077000
4.476000,-0.057000,0.005000,-0.076000
4.496000,-0.057000,0.005000,-0.076000
4.516000,-0.056000,0.005000,-0.075000
4.536000,-0.056000,0.006000,-0.074000
4.556000,-0.056000,0.006000,-0.074000
4.576000,-0.056000,0.006000,-0.073000
4.596000,-0.056000,0.006000,-0.073000
4.616000,-0.056000,0.006000,-0.072000
4.636000,-0.056000,0.006000,-0.072000
4.656000,-0.056000,0.006000,-0.071000
4.676000,-0.056000,0.007000,-0.071000
4.696000,-0.056000,0.007000,-0.070000
4.716000,-0.056000,0.007000,-0.069000
4.736000,-0.055000,0.007000,-0.069000
4.756000,-0.055000,0.007000,-0.068000
4.776000,-0.055000,0.007000,-0.068000
4.796000,-0.055000,0.007000,-0.067000
4.816000,-0.056000,0.008000,-0.067000
4.836000,-0.055000,0.008000,-0.066000
4.856000,-0.055000,0.008000,-0.066000
4.876000,-0.055000,0.008000,-0.065000
4.896000,-0.055000,0.008000,-0.065000
4.916000,-0.055000,0.008000,-0.065000
4.936000,-0.056000,0.008000,-0.064000
4.956000,-0.056000,0.008000,-0.063000
4.976000,-0.055000,0.008000,-0.063000
4.996000,-0.055000,0.009000,-0.062000
5.016000,-0.055000,0.009000,-0.062000
5.036000,-0.055000,0.009000,-0.062000
5.056000,-0.055000,0.009000,-0.061000
5.076000,-0.055000,0.009000,-0.061000
5.096000,-0.055000,0.009000,-0.060000
5.116000,-0.055000,0.009000,-0.060000
5.136000,-0.055000,0.009000,-0.059000
5.156000,-0.054000,0.010000,-0.059000
5.176000,-0.054000,0.010000,-0.059000
5.196000,-0.054000,0.010000,-0.058000
5.216000,-0.054000,0.010000,-0.058000
5.236000,-0.054000,0.010000,-0.057000
5.256000,-0.055000,0.010000,-0.057000
5.276000,-0.054000,0.010000,-0.057000
5.296000,-0.054000,0.010000,-0.056000
5.316000,-0.054000,0.010000,-0.056000
5.336000,-0.054000,0.011000,-0.055000
5.356000,-0.054000,0.011000,-0.055000
5.376000,-0.054000,0.011000,-0.055000
5.396000,-0.055000,0.011000,-0.054000
5.416000,-0.054000,0.011000,-0.054000
5.436000,-0.054000,0.011000,-0.053000
5.456000,-0.054000,0.011000,-0.053000
5.476000,-0.054000,0.011000,-0.052000
5.496000,-0.054000,0.011000,-0.052000
5.516000,-0.054000,0.011000,-0.052000
5.536000,-0.054000,0.012000,-0.052000
5.556000,-0.054000,0.012000,-0.051000
5.576000,-0.054000,0.012000,-0.051000
5.596000,-0.054000,0.012000,-0.050000
5.616000,-0.054000,0.012000,-0.050000
5.636000,-0.053000,0.012000,-0.050000
5.656000,-0.053000,0.012000,-0.049000
5.676000,-0.053000,0.012000,-0.049000
5.696000,-0.054000,0.013000,-0.049000
5.716000,-0.054000,0.013000,-0.048000
5.736000,-0.053000,0.013000,-0.048000
5.756000,-0.053000,0.013000,-0.048000
5.776000,-0.053000,0.013000,-0.047000
5.796000,-0.053000,0.013000,-0.047000
5.816000,-0.054000,0.013000,-0.047000
5.836000,-0.054000,0.013000,-0.046000
5.856000,-0.054000,0.014000,-0.046000
5.876000,-0.053000,0.014000,-0.046000
5.896000,-0.053000,0.014000,-0.045000
5.916000,-0.053000,0.014000,-0.045000
5.936000,-0.053000,0.015000,-0.044000
5.956000,-0.053000,0.016000,-0.044000
5.976000,-0.052000,0.016000,-0.043000
5.996000,-0.051000,0.018000,-0.043000
6.016000,-0.052000,0.019000,-0.043000
6.036000,-0.057000,0.021000,-0.044000
6.056000,-0.067000,0.021000,-0.047000
6.076000,-0.074000,0.021000,-0.051000
6.096000,-0.073000,0.020000,-0.055000
6.116000,-0.069000,0.018000,-0.060000
6.136000,-0.068000,0.014000,-0.068000
6.156000,-0.069000,0.010000,-0.078000
6.176000,-0.070000,0.006000,-0.088000
6.196000,-0.071000,0.002000,-0.099000
6.216000,-0.073000,-0.003000,-0.111000
6.236000,-0.078000,-0.007000,-0.123000
6.256000,-0.101000,-0.011000,-0.134000
6.276000,-0.144000,-0.014000,-0.147000
6.296000,-0.179000,-0.014000,-0.156000
6.316000,-0.207000,-0.014000,-0.157000
6.336000,-0.239000,-0.015000,-0.154000
6.356000,-0.278000,-0.015000,-0.153000
6.376000,-0.325000,-0.016000,-0.155000
6.396000,-0.376000,-0.019000,-0.158000
6.416000,-0.424000,-0.024000,-0.160000
6.436000,-0.469000,-0.031000,-0.163000
6.456000,-0.515000,-0.039000,-0.164000
6.476000,-0.556000,-0.046000,-0.165000
6.496000,-0.575000,-0.052000,-0.168000
6.516000,-0.565000,-0.056000,-0.170000
6.536000,-0.541000,-0.058000,-0.172000
6.556000,-0.524000,-0.062000,-0.175000
6.576000,-0.521000,-0.065000,-0.177000
6.596000,-0.527000,-0.067000,-0.180000
6.616000,-0.529000,-0.068000,-0.183000
6.636000,-0.523000,-0.067000,-0.187000
6.656000,-0.506000,-0.066000,-0.191000
6.676000,-0.481000,-0.066000,-0.195000
6.696000,-0.451000,-0.068000,-0.197000
6.716000,-0.421000,-0.069000,-0.197000
6.736000,-0.396000,-0.072000,-0.194000
6.756000,-0.385000,-0.073000,-0.189000
6.776000,-0.388000,-0.072000,-0.184000
6.796000,-0.388000,-0.071000,-0.178000
6.816000,-0.378000,-0.069000,-0.171000
6.836000,-0.362000,-0.068000,-0.164000
6.856000,-0.346000,-0.065000,-0.157000
6.876000,-0.329000,-0.062000,-0.150000
6.896000,-0.317000,-0.059000,-0.144000
6.916000,-0.316000,-0.057000,-0.139000
6.936000,-0.324000,-0.056000,-0.136000
6.956000,-0.329000,-0.055000,-0.132000
6.976000,-0.325000,-0.054000,-0.129000
6.996000,-0.313000,-0.054000,-0.126000
7.016000,-0.299000,-0.054000,-0.123000
7.036000,-0.289000,-0.055000,-0.121000
7.056000,-0.282000,-0.057000,-0.120000
7.076000,-0.274000,-0.060000,-0.119000
7.096000,-0.267000,-0.063000,-0.117000
7.116000,-0.266000,-0.065000,-0.114000
7.136000,-0.263000,-0.065000,-0.112000
7.156000,-0.252000,-0.064000,-0.107000
7.176000,-0.231000,-0.061000,-0.101000
7.196000,-0.201000,-0.057000,-0.094000
7.216000,-0.160000,-0.053000,-0.085000
7.236000,-0.108000,-0.049000,-0.075000
7.256000,-0.050000,-0.045000,-0.064000
7.276000,0.010000,-0.040000,-0.054000
7.296000,0.076000,-0.035000,-0.044000
7.316000,0.156000,-0.030000,-0.033000
7.336000,0.248000,-0.025000,-0.021000
7.356000,0.340000,-0.020000,-0.010000
7.376000,0.415000,-0.015000,0.000000
7.396000,0.470000,-0.013000,0.008000
7.416000,0.509000,-0.011000,0.014000
7.436000,0.529000,-0.010000,0.017000
7.456000,0.522000,-0.011000,0.016000
7.476000,0.497000,-0.014000,0.014000
7.496000,0.461000,-0.020000,0.010000
7.516000,0.420000,-0.027000,0.003000
7.536000,0.389000,-0.033000,-0.006000
7.556000,0.366000,-0.040000,-0.018000
7.576000,0.349000,-0.048000,-0.031000
7.596000,0.347000,-0.055000,-0.046000
7.616000,0.358000,-0.062000,-0.062000
7.636000,0.369000,-0.070000,-0.079000
7.656000,0.395000,-0.077000,-0.097000
7.676000,0.448000,-0.084000,-0.115000
7.696000,0.514000,-0.088000,-0.134000
7.716000,0.568000,-0.091000,-0.155000
7.736000,0.604000,-0.094000,-0.178000
7.756000,0.627000,-0.096000,-0.202000
7.776000,0.642000,-0.098000,-0.225000
7.796000,0.650000,-0.098000,-0.248000
7.816000,0.644000,-0.097000,-0.272000
7.836000,0.625000,-0.094000,-0.295000
7.856000,0.604000,-0.092000,-0.315000
7.876000,0.563000,-0.090000,-0.321000
7.896000,0.518000,-0.089000,-0.334000
7.916000,0.472000,-0.085000,-0.343000
7.936000,0.428000,-0.080000,-0.354000
7.956000,0.417000,-0.075000,-0.366000
7.976000,0.440000,-0.068000,-0.366000
7.996000,0.468000,-0.062000,-0.364000
