accel_time_list,accel_x_list,accel_y_list,accel_z_list
0.410000,-5.377377,-7.127539,6.196194
0.430000,-5.371391,-7.371747,6.300342
0.450000,-5.337471,-7.412584,6.255987
0.470000,-5.305522,-7.330869,6.123451
0.490000,-5.266197,-7.188405,5.967562
0.510000,-5.229148,-7.014426,5.841805
0.530000,-5.177237,-6.837555,5.728796
0.550000,-5.090000,-6.688140,5.582396
0.570000,-4.985200,-6.584980,5.405728
0.590000,-4.905024,-6.533066,5.220085
0.610000,-4.851716,-6.535400,5.029826
0.630000,-4.801105,-6.592013,4.830645
0.650000,-4.744558,-6.722967,4.627424
0.670000,-4.686071,-6.911403,4.423256
0.690000,-4.609472,-7.139819,4.221838
0.710000,-4.504670,-7.375757,4.032780
0.730000,-4.387008,-7.593843,3.854887
0.750000,-4.268699,-7.790816,3.701377
0.770000,-4.152524,-7.973361,3.572916
0.790000,-4.051706,-8.136958,3.470557
0.810000,-3.969538,-8.283903,3.390405
0.830000,-3.892631,-8.427835,3.326092
0.850000,-3.823582,-8.570473,3.285355
0.870000,-3.764529,-8.711634,3.242347
0.890000,-3.725020,-8.863071,3.175827
0.910000,-3.713187,-9.074796,3.068756
0.930000,-3.745440,-9.382190,2.931642
0.950000,-3.821954,-9.754873,2.785661
0.970000,-3.928558,-10.078005,2.654240
0.990000,-4.059119,-10.303357,2.544203
1.010000,-4.238982,-10.457147,2.438750
1.030000,-4.431495,-10.522523,2.330602
1.050000,-4.577298,-10.437023,2.228046
1.070000,-4.670675,-10.192624,2.148800
1.090000,-4.718891,-9.798643,2.093542
1.110000,-4.717007,-9.267236,2.051600
1.130000,-4.670138,-8.618077,2.025021
1.150000,-4.590090,-7.862623,1.992782
1.170000,-4.496033,-7.041654,1.944320
1.190000,-4.398175,-6.236635,1.877683
1.210000,-4.306703,-5.547257,1.803975
1.230000,-4.243496,-5.039738,1.753481
1.250000,-4.231278,-4.826294,1.702814
1.270000,-4.279395,-5.011573,1.589321
1.290000,-4.388547,-5.634077,1.388161
1.310000,-4.517095,-6.715390,1.169586
1.330000,-4.639140,-8.138106,0.990398
1.350000,-4.833765,-9.851305,0.854080
1.370000,-4.944538,-11.662868,0.685459
1.390000,-4.922304,-13.172184,0.513510
1.410000,-4.852111,-14.046804,0.372416
1.430000,-4.756105,-14.291510,0.313297
1.450000,-4.625885,-14.029595,0.333321
1.470000,-4.435511,-13.481591,0.390923
1.490000,-4.171896,-12.764643,0.462012
1.510000,-3.826761,-11.889870,0.523796
1.530000,-3.412005,-10.875861,0.559572
1.550000,-2.956259,-9.783908,0.577744
1.570000,-2.493348,-8.755407,0.578036
1.590000,-2.050459,-7.969216,0.561993
1.610000,-1.632263,-7.587672,0.519044
1.630000,-1.239040,-7.773336,0.415082
1.650000,-0.943380,-8.753481,0.245822
1.670000,-1.108076,-10.696458,-0.010117
1.690000,-1.995107,-13.285503,-0.373522
1.710000,-2.742008,-15.145010,-0.698894
1.730000,-3.272527,-15.883819,-0.959299
1.750000,-3.711702,-15.892334,-1.247838
1.770000,-3.975178,-15.462479,-1.559771
1.790000,-4.093507,-14.733946,-1.820990
1.810000,-4.177388,-13.802184,-1.955456
1.830000,-4.295847,-12.745727,-1.962306
1.850000,-4.426041,-11.603711,-1.873338
1.870000,-4.515195,-10.400392,-1.727128
1.890000,-4.535898,-9.176425,-1.563723
1.910000,-4.508000,-7.955227,-1.415396
1.930000,-4.456077,-6.776022,-1.288973
1.950000,-4.379634,-5.724118,-1.176241
1.970000,-4.273058,-4.873923,-1.063629
1.990000,-4.128220,-4.214765,-0.941577
2.010000,-3.970913,-3.777945,-0.793374
2.030000,-3.870162,-3.562282,-0.616236
2.050000,-3.874314,-3.614399,-0.467940
2.070000,-3.985245,-3.984895,-0.426950
2.090000,-4.199263,-4.863838,-0.530516
2.110000,-4.467701,-6.527991,-0.775949
2.130000,-4.926816,-8.899766,-0.966475
2.150000,-5.389501,-11.141907,-1.048654
2.170000,-5.395194,-12.476213,-1.007626
2.190000,-5.350819,-12.833583,-0.950339
2.210000,-5.276798,-12.480356,-0.913706
2.230000,-5.135243,-11.808031,-0.924287
2.250000,-4.885807,-11.065830,-0.964007
2.270000,-4.473677,-10.377512,-1.011717
2.290000,-3.900861,-9.758099,-1.056854
2.310000,-3.254681,-9.193538,-1.090558
2.330000,-2.663516,-8.723512,-1.104130
2.350000,-2.146803,-8.403682,-1.097155
2.370000,-1.672695,-8.214473,-1.078064
2.390000,-1.280617,-8.106508,-1.049916
2.422000,-1.041713,-8.180030,-1.072476
2.442000,-0.896210,-8.509980,-1.144833
2.462000,-0.919157,-9.197335,-1.307327
2.482000,-1.400586,-10.506831,-1.674724
2.502000,-2.220829,-11.854374,-2.073679
2.522000,-2.653145,-12.380623,-2.300122
2.542000,-2.828549,-12.233829,-2.361887
2.562000,-2.809984,-11.838564,-2.384526
2.582000,-2.690683,-11.346804,-2.411449
2.602000,-2.563907,-10.829792,-2.431633
2.622000,-2.535188,-10.320986,-2.359673
2.642000,-2.646790,-9.805951,-2.196481
2.662000,-2.790779,-9.213822,-2.001617
2.682000,-2.898067,-8.480597,-1.839797
2.702000,-2.971081,-7.564936,-1.742005
2.722000,-3.020267,-6.475877,-1.665556
2.742000,-3.033553,-5.384075,-1.557769
2.762000,-3.021651,-4.545448,-1.439475
2.782000,-3.065703,-4.184458,-1.373654
2.802000,-3.204822,-4.499811,-1.372123
2.822000,-3.442208,-5.909256,-1.373948
2.842000,-3.786021,-8.485958,-1.342524
2.862000,-4.394116,-11.224373,-1.189680
2.882000,-4.576477,-12.549877,-1.035828
2.902000,-4.422930,-13.734661,-0.867666
2.922000,-4.225885,-14.263133,-0.741038
2.942000,-3.999887,-13.955725,-0.652869
2.962000,-3.701434,-13.380942,-0.609642
2.982000,-3.289866,-12.757581,-0.589414
3.002000,-2.768104,-12.080388,-0.580545
3.022000,-2.189534,-11.261288,-0.569209
3.042000,-1.645140,-10.313481,-0.541919
3.062000,-1.190790,-9.382266,-0.487519
3.082000,-0.794282,-8.656445,-0.421591
3.102000,-0.410887,-8.214549,-0.361134
3.122000,-0.026261,-8.095749,-0.322550
3.142000,0.374650,-8.470973,-0.336731
3.162000,0.628603,-9.674053,-0.386956
3.182000,0.298027,-11.987011,-0.546228
3.202000,-0.635028,-15.286318,-0.751911
3.222000,-1.768219,-18.142784,-1.001788
3.242000,-2.827982,-18.697042,-1.278622
3.262000,-3.292691,-17.024775,-1.482394
3.282000,-3.219453,-14.373355,-1.604220
3.302000,-2.991398,-11.273544,-1.619232
3.322000,-2.974140,-8.440843,-1.514705
3.342000,-3.265438,-6.350804,-1.355693
3.362000,-3.493515,-5.250523,-1.224270
3.382000,-3.362128,-4.982259,-1.092727
3.402000,-3.337072,-4.786547,-0.989947
3.422000,-3.426664,-4.276765,-0.889004
3.442000,-3.487689,-3.510920,-0.792181
3.462000,-3.466420,-2.666261,-0.683192
3.482000,-3.401220,-1.960796,-0.571164
3.502000,-3.399412,-1.826646,-0.517089
3.522000,-3.601609,-2.879107,-0.524609
3.542000,-4.008081,-5.753123,-0.576518
3.562000,-4.538513,-9.420488,-0.431975
3.582000,-5.261361,-10.844788,-0.013315
3.602000,-5.840244,-11.100999,0.456886
3.622000,-5.811719,-11.128049,0.882863
3.642000,-5.559253,-10.710609,1.178284
3.662000,-5.292062,-10.002725,1.337153
3.682000,-4.967615,-9.193830,1.382433
3.702000,-4.491233,-8.428341,1.349280
3.722000,-3.841625,-7.818282,1.278705
3.742000,-3.128121,-7.362802,1.203403
3.762000,-2.504835,-6.982829,1.140447
3.782000,-1.999158,-6.653594,1.098240
3.802000,-1.522536,-6.402198,1.057279
3.822000,-1.040254,-6.258023,0.978676
3.842000,-0.629652,-6.308494,0.757485
3.862000,-0.364316,-6.786729,0.135691
3.882000,-0.441113,-7.909682,-1.052949
3.902000,-2.088686,-9.824221,-2.660581
3.922000,-2.684659,-11.349622,-4.160079
3.942000,-3.163900,-11.683766,-5.225706
3.962000,-3.590421,-11.399805,-5.933011
3.982000,-3.738118,-10.889243,-6.201608
4.002000,-3.682789,-10.308072,-6.158610
4.022000,-3.616236,-9.680723,-5.984314
4.042000,-3.625194,-9.022326,-5.724938
4.062000,-3.686151,-8.333962,-5.365280
4.082000,-3.771165,-7.640013,-4.937174
4.102000,-3.879163,-6.950433,-4.506465
4.122000,-3.990784,-6.245364,-4.111796
4.142000,-4.073597,-5.495831,-3.770513
4.162000,-4.133705,-4.740189,-3.421007
4.182000,-4.200484,-4.083815,-3.047774
4.202000,-4.299669,-3.694465,-2.771829
4.222000,-4.416392,-3.715485,-2.725558
4.242000,-4.585364,-4.361166,-2.735372
4.262000,-4.942078,-6.053216,-2.634812
4.282000,-5.550329,-8.634487,-2.299894
4.302000,-5.891364,-10.534369,-1.820063
4.322000,-5.812574,-11.581303,-1.468561
4.342000,-5.570016,-12.029183,-1.307475
4.362000,-5.237539,-12.123305,-1.216521
4.382000,-4.814783,-12.077373,-1.128467
4.402000,-4.268671,-11.885851,-1.040187
4.444000,-3.520867,-11.065939,-0.989718
4.464000,-2.757445,-10.038546,-0.951054
4.484000,-2.098164,-9.001506,-0.886760
4.504000,-1.640393,-8.318911,-0.816697
4.524000,-1.331105,-8.234211,-0.801506
4.544000,-1.088750,-8.661905,-0.872318
4.564000,-0.950130,-9.577332,-1.029038
4.584000,-1.122694,-11.057888,-1.289072
4.604000,-1.611516,-12.986171,-1.686813
4.624000,-2.200144,-14.662365,-1.994769
4.644000,-2.713646,-15.397425,-2.107172
4.664000,-3.089458,-15.237843,-2.156069
4.684000,-3.277544,-14.566175,-2.213230
4.704000,-3.319486,-13.613554,-2.249498
4.724000,-3.318796,-12.497017,-2.231973
4.744000,-3.344128,-11.294551,-2.155753
4.764000,-3.412204,-10.021661,-2.039783
4.784000,-3.503558,-8.648943,-1.915929
4.804000,-3.580483,-7.167146,-1.809764
4.824000,-3.621911,-5.572681,-1.712839
4.844000,-3.639374,-4.012668,-1.593594
4.864000,-3.644964,-2.735878,-1.436376
4.884000,-3.635710,-1.923798,-1.239097
4.904000,-3.649108,-1.695672,-1.059848
4.924000,-3.758447,-2.171946,-0.975737
4.944000,-4.053315,-3.660288,-0.970924
4.964000,-4.494676,-6.368986,-0.942546
4.984000,-4.940073,-9.936729,-0.849260
5.004000,-5.294273,-12.852020,-0.715368
5.024000,-5.448081,-14.212812,-0.599281
5.044000,-5.368429,-14.536350,-0.503507
5.064000,-5.150988,-14.245191,-0.418691
5.084000,-4.860656,-13.651632,-0.337723
5.104000,-4.517751,-12.989860,-0.271300
5.124000,-4.112061,-12.339997,-0.221142
5.144000,-3.654912,-11.699207,-0.179982
5.164000,-3.173409,-11.040265,-0.143118
5.184000,-2.705812,-10.399212,-0.105115
5.204000,-2.285645,-9.859827,-0.064323
5.224000,-1.917807,-9.496020,-0.031135
5.244000,-1.609362,-9.291201,-0.012456
5.264000,-1.344134,-9.211745,-0.024058
5.284000,-1.093537,-9.334118,-0.081917
5.304000,-0.926743,-9.862734,-0.195810
5.324000,-1.157114,-10.986696,-0.374003
5.344000,-2.060136,-12.682732,-0.653038
5.364000,-3.006632,-14.225776,-0.918026
5.384000,-3.900811,-14.776175,-1.061757
5.404000,-4.499506,-14.309646,-1.111364
5.424000,-4.709209,-13.342244,-1.129250
5.444000,-4.647964,-12.154743,-1.131522
5.464000,-4.468125,-10.951025,-1.099406
5.484000,-4.286581,-9.922503,-1.034933
5.504000,-4.140009,-9.102246,-0.945664
5.524000,-3.994030,-8.323613,-0.845136
5.544000,-3.816025,-7.467114,-0.745771
5.564000,-3.625860,-6.529599,-0.653974
5.584000,-3.482180,-5.576370,-0.579713
5.604000,-3.432108,-4.753592,-0.510713
5.624000,-3.469228,-4.206877,-0.428871
5.644000,-3.581700,-4.001051,-0.327258
5.664000,-3.804057,-4.162436,-0.253318
5.684000,-4.198452,-4.637418,-0.246046
5.704000,-4.626826,-5.325089,-0.299889
5.724000,-4.979359,-6.082386,-0.346202
5.744000,-5.316332,-6.773403,-0.354131
5.764000,-5.727427,-7.466984,-0.346097
5.784000,-5.971019,-8.156256,-0.367787
5.804000,-6.038390,-8.877188,-0.430678
5.824000,-6.021518,-9.461086,-0.513759
5.844000,-5.912286,-9.765942,-0.599656
5.864000,-5.708017,-9.861637,-0.678100
5.884000,-5.400981,-9.892675,-0.739631
5.904000,-5.016491,-9.835367,-0.780952
5.924000,-4.587606,-9.632718,-0.790826
5.944000,-4.141681,-9.313288,-0.765020
5.964000,-3.692586,-8.934460,-0.712182
5.984000,-3.257116,-8.583485,-0.647712
6.004000,-2.839526,-8.311469,-0.595966
6.024000,-2.422980,-8.140734,-0.571768
6.044000,-2.017110,-8.150023,-0.597194
6.064000,-1.706084,-8.525663,-0.688834
6.084000,-1.761343,-9.369396,-0.831632
6.104000,-2.356151,-10.578318,-1.004073
6.124000,-3.027640,-11.692312,-1.156584
6.144000,-3.673606,-12.425798,-1.263172
6.164000,-4.347542,-12.742643,-1.327248
6.184000,-4.869352,-12.597623,-1.361802
6.204000,-5.143835,-12.104304,-1.369408
6.224000,-5.195839,-11.407678,-1.344508
6.244000,-5.139466,-10.657719,-1.285021
6.264000,-5.035789,-9.975582,-1.201349
6.284000,-4.913661,-9.421150,-1.109573
6.304000,-4.785188,-8.966887,-1.020338
6.324000,-4.673454,-8.527878,-0.932624
6.344000,-4.617377,-8.056598,-0.855179
6.364000,-4.596215,-7.565711,-0.788572
6.384000,-4.568440,-7.131092,-0.713376
6.404000,-4.563036,-6.910380,-0.618743
6.424000,-4.604644,-6.921760,-0.508382
