accel_time_list,accel_x_list,accel_y_list,accel_z_list
0.413,-7.036559,-6.83784,4.43885
0.433,-6.859388,-6.773197,4.315549
0.453,-6.678592,-6.637408,4.270383
0.473,-6.73249,-6.595781,4.223809
0.493,-6.706947,-6.44963,4.181443
0.513,-6.538134,-6.278418,4.123526
0.533,-6.291107,-6.117832,4.064188
0.553,-6.046059,-6.044072,4.006919
0.573,-5.860608,-6.078957,3.948562
0.593,-5.740798,-6.188245,3.900816
0.613,-5.669874,-6.319545,3.864593
0.633,-5.626108,-6.433064,3.845612
0.653,-5.603993,-6.515181,3.846136
0.673,-5.594979,-6.562927,3.864554
0.693,-5.586889,-6.573091,3.895506
0.713,-5.573381,-6.554755,3.934892
0.733,-5.555584,-6.529249,3.975252
0.753,-5.540242,-6.521894,4.009311
0.773,-5.529617,-6.540839,4.033434
0.793,-5.525888,-6.575719,4.054404
0.813,-5.53511,-6.613718,4.073016
0.833,-5.561525,-6.645751,4.095612
0.853,-5.599155,-6.672441,4.118654
0.873,-5.639372,-6.68317,4.142622
0.893,-5.678465,-6.670377,4.165708
0.913,-5.717061,-6.632001,4.188501
0.933,-5.750243,-6.569979,4.205584
0.953,-5.771738,-6.498984,4.206895
0.973,-5.786247,-6.448891,4.190588
0.993,-5.808198,-6.430378,4.158727
1.013,-5.844023,-6.433694,4.115541
1.033,-5.880801,-6.436696,4.066219
1.053,-5.901082,-6.405362,4.022131
1.073,-5.90118,-6.344142,3.98718
1.093,-5.892845,-6.291892,3.951632
1.113,-5.883969,-6.25397,3.91356
1.133,-5.873232,-6.213982,3.879628
1.153,-5.861405,-6.188983,3.844833
1.173,-5.855663,-6.19478,3.804599
1.193,-5.858337,-6.201021,3.766771
1.213,-5.867731,-6.179898,3.738853
1.233,-5.882605,-6.122324,3.724104
1.253,-5.907575,-6.047867,3.717675
1.273,-5.944511,-5.985542,3.709455
1.293,-5.989262,-5.943769,3.697305
1.313,-6.037893,-5.910683,3.683078
1.333,-6.088153,-5.867368,3.672926
1.353,-6.137416,-5.819676,3.664298
1.373,-6.184926,-5.766806,3.659238
1.393,-6.225627,-5.705406,3.657745
1.413,-6.264044,-5.646276,3.653665
1.433,-6.294939,-5.599637,3.64283
1.453,-6.307766,-5.566229,3.62806
1.473,-6.310277,-5.534416,3.620809
1.493,-6.304822,-5.509873,3.61436
1.513,-6.282648,-5.491739,3.609175
1.533,-6.236899,-5.466386,3.609598
1.553,-6.1694,-5.422349,3.619774
1.573,-6.086915,-5.359698,3.634669
1.593,-6.014342,-5.296039,3.646677
1.613,-5.959143,-5.244072,3.653624
1.633,-5.910971,-5.218167,3.678105
1.653,-5.871187,-5.218715,3.734769
1.673,-5.852714,-5.264068,3.800168
1.693,-5.832747,-5.336536,3.864909
1.713,-5.782598,-5.476971,3.915986
1.733,-5.682643,-5.719592,3.962902
1.753,-5.504079,-6.070215,4.023451
1.773,-5.239153,-6.602705,4.015986
1.793,-4.873471,-7.32133,3.964171
1.813,-4.476152,-8.16834,3.886388
1.833,-4.157608,-8.938575,3.756157
1.853,-3.835028,-9.488877,3.607985
1.873,-3.630447,-9.579299,3.544631
1.893,-3.665389,-9.065081,3.462677
1.913,-3.820673,-8.226367,3.290897
1.933,-3.836401,-7.372779,2.819346
1.953,-3.88213,-6.932408,2.055542
1.973,-6.835634,-12.72869,5.685505
1.993,-17.72104,-8.718779,5.439026
2.013,-23.72712,12.83922,3.01717
2.033,-15.02739,29.06928,-0.65993
2.053,-6.378976,15.63775,12.89876
2.073,-6.858355,17.49529,16.74091
2.093,-3.668437,9.391562,13.61256
2.113,-2.968395,-1.676989,9.33682
2.133,-5.311165,-5.933433,7.420731
2.153,-5.530893,-6.627833,4.982346
2.173,-5.475104,-8.840158,3.206947
2.193,-4.511913,-10.1024,2.907998
2.213,-3.625376,-10.09136,3.022016
2.233,-3.172413,-9.666172,3.581259
2.253,-2.847419,-8.944843,4.198141
2.273,-2.704396,-8.226651,4.827387
2.293,-2.659965,-7.73143,5.388868
2.313,-2.476015,-7.534323,5.831099
2.333,-2.203619,-7.562146,5.955863
2.353,-2.084662,-7.878778,5.832273
2.373,-2.114978,-8.046358,5.676457
2.393,-2.149055,-8.161598,5.563771
2.908,-2.041923,-8.180856,5.586249
2.928,-1.934606,-8.203616,5.60005
2.948,-1.849436,-8.244307,5.608106
2.968,-1.784301,-8.267642,5.623629
2.988,-1.738654,-8.264296,5.646616
3.008,-1.70046,-8.258469,5.675109
3.028,-1.663549,-8.244624,5.707436
3.048,-1.622884,-8.231182,5.738023
3.068,-1.584099,-8.221359,5.767108
3.088,-1.551356,-8.211764,5.79389
3.108,-1.517998,-8.19584,5.82153
3.128,-1.485866,-8.181947,5.849742
3.148,-1.453762,-8.173506,5.870642
3.168,-1.421479,-8.17133,5.887103
3.188,-1.390014,-8.170419,5.898848
3.208,-1.358401,-8.172748,5.90538
3.228,-1.326035,-8.182656,5.906109
3.248,-1.297137,-8.195206,5.904043
3.268,-1.273872,-8.202565,5.905734
3.288,-1.255476,-8.205666,5.91121
3.308,-1.23909,-8.205342,5.919598
3.328,-1.222522,-8.204601,5.927787
3.348,-1.206441,-8.203267,5.935224
3.368,-1.191665,-8.204414,5.941551
3.388,-1.178651,-8.206769,5.946992
3.408,-1.165775,-8.205808,5.953001
3.428,-1.151695,-8.206545,5.957413
3.448,-1.139412,-8.206071,5.963359
3.468,-1.127154,-8.204778,5.968952
3.488,-1.115477,-8.203723,5.974756
3.508,-1.105011,-8.201915,5.981403
3.528,-1.095441,-8.199741,5.986717
3.548,-1.087001,-8.19997,5.990952
3.568,-1.07865,-8.201851,5.993738
3.588,-1.07066,-8.201709,5.997584
3.608,-1.063176,-8.200031,6.002953
3.628,-1.055626,-8.198977,6.006915
3.648,-1.048121,-8.200086,6.009298
3.668,-1.039514,-8.202069,6.010245
3.688,-1.032617,-8.204166,6.011786
3.708,-1.026689,-8.204274,6.014508
3.728,-1.020495,-8.203053,6.017689
3.748,-1.014581,-8.20273,6.019694
3.768,-1.00879,-8.20277,6.021445
3.788,-1.003536,-8.202506,6.024465
3.808,-0.998424,-8.202931,6.025895
3.828,-0.993672,-8.203885,6.027961
3.848,-0.988862,-8.202876,6.030379
3.868,-0.983866,-8.203718,6.031511
3.888,-0.979511,-8.204692,6.032769
3.908,-0.975087,-8.204266,6.034911
3.928,-0.970808,-8.204469,6.036311
3.948,-0.966665,-8.205272,6.036965
3.968,-0.962246,-8.20605,6.037215
3.988,-0.958485,-8.206548,6.038628
4.008,-0.95476,-8.206197,6.040109
4.028,-0.951499,-8.20682,6.04052
4.048,-0.947875,-8.207391,6.041388
4.068,-0.944433,-8.207147,6.043193
4.088,-0.941315,-8.206705,6.044841
4.108,-0.937992,-8.207287,6.045473
4.128,-0.935018,-8.208153,6.046053
4.148,-0.931983,-8.208109,6.047257
4.168,-0.929635,-8.208034,6.048995
4.188,-0.926966,-8.207066,6.050818
4.208,-0.92437,-8.206943,6.051881
4.228,-0.921536,-8.207571,6.052691
4.248,-0.91881,-8.208399,6.053069
4.268,-0.916455,-8.208173,6.054499
4.288,-0.914094,-8.207261,6.05611
4.308,-0.912053,-8.207351,6.05756
4.328,-0.909647,-8.207292,6.058221
4.348,-0.907141,-8.207523,6.059164
4.368,-0.90479,-8.207234,6.060291
4.388,-0.902683,-8.207292,6.061479
4.408,-0.900687,-8.207096,6.062524
4.428,-0.898132,-8.207789,6.062604
4.448,-0.895756,-8.208522,6.062655
4.468,-0.894088,-8.207805,6.06379
4.488,-0.891489,-8.205471,6.065286
4.508,-0.889355,-8.203927,6.067704
4.528,-0.888104,-8.204463,6.067101
4.548,-0.884546,-8.202311,6.065869
4.568,-0.881738,-8.197752,6.066039
4.588,-0.883968,-8.20131,6.066127
4.608,-0.886094,-8.206076,6.063261
4.628,-0.883513,-8.204371,6.064199
4.648,-0.880903,-8.203425,6.066975
4.668,-0.879424,-8.206839,6.067429
4.688,-0.877201,-8.208222,6.068847
4.708,-0.875949,-8.20941,6.071105
4.728,-0.87433,-8.21101,6.073272
4.748,-0.871758,-8.209846,6.076131
4.768,-0.869364,-8.211018,6.076981
4.788,-0.866149,-8.214212,6.075946
4.808,-0.863574,-8.211223,6.079399
4.828,-0.863607,-8.203953,6.086672
4.848,-0.86349,-8.203651,6.087983
4.868,-0.860794,-8.209171,6.083918
4.888,-0.860952,-8.213869,6.081808
4.987,-0.857507,-8.210547,6.088842
5.007,-0.856927,-8.208456,6.09547
5.027,-0.857911,-8.198652,6.106988
5.047,-0.858454,-8.185163,6.120976
5.067,-0.858799,-8.179854,6.127977
5.087,-0.857059,-8.183242,6.127534
5.107,-0.852534,-8.181735,6.132986
5.127,-0.850545,-8.17646,6.140082
5.147,-0.850419,-8.176505,6.144258
5.167,-0.848523,-8.176382,6.145975
5.187,-0.844874,-8.174489,6.149949
5.207,-0.842938,-8.172687,6.153619
5.227,-0.840614,-8.167431,6.159695
5.247,-0.838217,-8.160048,6.166501
5.267,-0.836706,-8.158702,6.170485
5.287,-0.833151,-8.159236,6.171795
5.307,-0.830422,-8.159621,6.174289
5.327,-0.828223,-8.160171,6.173359
5.347,-0.821473,-8.160139,6.172534
5.367,-0.820346,-8.165615,6.171574
5.387,-0.817744,-8.166583,6.170886
5.407,-0.812847,-8.164261,6.17382
5.427,-0.811135,-8.168546,6.171124
5.447,-0.807166,-8.172789,6.166275
5.467,-0.803092,-8.174283,6.165137
5.487,-0.79815,-8.178013,6.162934
5.507,-0.795244,-8.185584,6.158215
5.527,-0.792176,-8.185226,6.157517
5.547,-0.788564,-8.179318,6.163363
5.567,-0.786496,-8.172703,6.169796
5.587,-0.785047,-8.172211,6.171616
5.607,-0.783326,-8.174429,6.172532
5.627,-0.782316,-8.174806,6.173511
5.647,-0.778994,-8.172257,6.174959
5.667,-0.776902,-8.171363,6.177661
5.687,-0.774856,-8.170286,6.179307
5.707,-0.773093,-8.168358,6.182085
5.727,-0.772448,-8.166856,6.186057
5.747,-0.77296,-8.1641,6.190108
5.767,-0.770857,-8.158642,6.195532
5.787,-0.769206,-8.155849,6.199681
5.807,-0.769079,-8.154281,6.203788
5.827,-0.768595,-8.151363,6.207638
5.847,-0.767326,-8.149337,6.20999
5.867,-0.766212,-8.147355,6.213037
5.887,-0.765374,-8.145249,6.215454
5.907,-0.763801,-8.144122,6.217775
5.927,-0.763561,-8.142575,6.220911
5.947,-0.763132,-8.139655,6.224854
5.967,-0.762803,-8.137004,6.228398
5.987,-0.762501,-8.135098,6.231715
6.007,-0.762083,-8.134144,6.233658
6.027,-0.761214,-8.131524,6.23733
6.047,-0.761383,-8.129098,6.240821
6.067,-0.761646,-8.128851,6.242985
6.087,-0.76138,-8.128678,6.244863
6.107,-0.761403,-8.127909,6.247561
6.127,-0.7609,-8.12571,6.250183
6.147,-0.759564,-8.123797,6.252014
6.167,-0.758983,-8.123842,6.252629
6.187,-0.75599,-8.133775,6.250939
6.207,-0.755972,-8.128956,6.253983
6.227,-0.757175,-8.126435,6.257667
6.247,-0.757073,-8.128609,6.257052
6.267,-0.757332,-8.130402,6.256276
6.287,-0.756965,-8.128489,6.257877
6.307,-0.756841,-8.127028,6.259415
6.327,-0.756863,-8.126082,6.261465
6.347,-0.757362,-8.123711,6.264547
6.367,-0.757043,-8.122344,6.26621
6.387,-0.757038,-8.122547,6.266611
6.407,-0.756172,-8.121815,6.267104
6.427,-0.756535,-8.120754,6.269962
6.447,-0.756918,-8.117957,6.272768
6.467,-0.756987,-8.118133,6.274061
6.487,-0.756504,-8.120221,6.274072
6.507,-0.756672,-8.120494,6.275161
6.527,-0.75612,-8.116454,6.279758
6.547,-0.754975,-8.111545,6.285028
6.567,-0.754273,-8.109078,6.288784
6.587,-0.753865,-8.107834,6.291138
6.607,-0.753725,-8.107081,6.293684
6.627,-0.753059,-8.107102,6.295894
6.647,-0.752902,-8.105447,6.299063
6.667,-0.752652,-8.102755,6.303301
6.687,-0.752092,-8.099563,6.307186
6.707,-0.750892,-8.096738,6.310984
6.727,-0.75023,-8.094516,6.315295
6.747,-0.749791,-8.091694,6.319347
6.767,-0.748135,-8.088469,6.323575
6.787,-0.746017,-8.084916,6.328693
6.807,-0.744901,-8.082453,6.33333
6.827,-0.744156,-8.07944,6.337945
6.847,-0.742748,-8.076553,6.342177
6.867,-0.740037,-8.074557,6.345554
6.887,-0.738095,-8.072533,6.349423
6.907,-0.737586,-8.069667,6.354116
6.927,-0.736985,-8.066303,6.358235
6.947,-0.735888,-8.063068,6.362935
6.967,-0.734587,-8.060321,6.367229
