gyro_time_list,gyro_x_list,gyro_y_list,gyro_z_list
0.015000,-1.131666,-1.620625,0.881058
0.035000,-1.182494,-1.582654,0.888386
0.055000,-1.167430,-1.621839,0.912952
0.075000,-1.180305,-1.722908,0.892049
0.095000,-1.231364,-1.743375,0.865162
0.115000,-1.283348,-1.695822,0.860164
0.135000,-1.339845,-1.652725,0.859241
0.155000,-1.412697,-1.618108,0.855184
0.175000,-1.497235,-1.575295,0.843931
0.195000,-1.586484,-1.522519,0.823178
0.215000,-1.674442,-1.464104,0.797209
0.235000,-1.760374,-1.402559,0.770026
0.255000,-1.836513,-1.341293,0.749201
0.275000,-1.892916,-1.284351,0.736083
0.295000,-1.928990,-1.233819,0.727130
0.315000,-1.949511,-1.190012,0.717518
0.335000,-1.963291,-1.151646,0.702450
0.355000,-1.985939,-1.115486,0.681284
0.375000,-2.029636,-1.081972,0.654390
0.395000,-2.088907,-1.052017,0.623747
0.415000,-2.149716,-1.021878,0.588691
0.435000,-2.190388,-0.988740,0.544720
0.455000,-2.183289,-0.953316,0.487614
0.475000,-2.120502,-0.915506,0.415594
0.495000,-2.009861,-0.877459,0.330619
0.515000,-1.867283,-0.843519,0.235912
0.535000,-1.717442,-0.817364,0.132970
0.555000,-1.579027,-0.800811,0.026282
0.575000,-1.462173,-0.794072,-0.081095
0.595000,-1.371100,-0.793043,-0.185955
0.615000,-1.303412,-0.790434,-0.282281
0.635000,-1.252135,-0.780198,-0.364552
0.655000,-1.208621,-0.759247,-0.429921
0.675000,-1.164878,-0.727884,-0.474138
0.695000,-1.114293,-0.688155,-0.494756
0.715000,-1.055498,-0.643899,-0.490287
0.735000,-0.997183,-0.598108,-0.460924
0.755000,-0.949553,-0.554717,-0.406906
0.775000,-0.919759,-0.518737,-0.327875
0.795000,-0.921146,-0.494155,-0.229400
0.815000,-0.956514,-0.493185,-0.122840
0.835000,-1.002819,-0.527865,-0.014855
0.855000,-1.029898,-0.575960,0.067875
0.875000,-1.040383,-0.611377,0.114537
0.895000,-1.052348,-0.635236,0.142900
0.915000,-1.074448,-0.658293,0.161356
0.935000,-1.107236,-0.685091,0.174897
0.955000,-1.141170,-0.716995,0.184210
0.975000,-1.161203,-0.752705,0.186109
0.995000,-1.156029,-0.790304,0.182189
1.015000,-1.127975,-0.830245,0.175885
1.035000,-1.086774,-0.873145,0.170013
1.055000,-1.042641,-0.918773,0.166187
1.075000,-1.003481,-0.965701,0.164745
1.095000,-0.975395,-1.011625,0.164706
1.115000,-0.963527,-1.054232,0.165180
1.135000,-0.969292,-1.091063,0.162435
1.155000,-0.984152,-1.120442,0.154104
1.175000,-0.994092,-1.144356,0.139321
1.195000,-0.987809,-1.160336,0.117160
1.215000,-0.967982,-1.162936,0.085331
1.235000,-0.943703,-1.150071,0.045132
1.255000,-0.923040,-1.122912,-0.002445
1.275000,-0.897302,-1.086875,-0.055018
1.295000,-0.841699,-1.051565,-0.112359
1.315000,-0.750408,-1.020906,-0.177137
1.335000,-0.630861,-0.996189,-0.244780
1.355000,-0.501968,-0.978674,-0.308445
1.375000,-0.389223,-0.970256,-0.366047
1.395000,-0.313026,-0.963670,-0.416846
1.415000,-0.272673,-0.950980,-0.456345
1.435000,-0.254276,-0.930258,-0.482402
1.455000,-0.240670,-0.905636,-0.493771
1.475000,-0.222796,-0.880724,-0.489915
1.495000,-0.205728,-0.860192,-0.471121
1.515000,-0.195724,-0.848907,-0.436036
1.535000,-0.188124,-0.849777,-0.382232
1.555000,-0.173662,-0.865639,-0.308157
1.575000,-0.153504,-0.899294,-0.213025
1.595000,-0.142163,-0.954068,-0.096105
1.615000,-0.152375,-1.029551,0.042945
1.635000,-0.189011,-1.130233,0.206727
1.655000,-0.255487,-1.236232,0.390884
1.675000,-0.348491,-1.346806,0.566123
1.695000,-0.460730,-1.461082,0.705669
1.715000,-0.572804,-1.578083,0.804341
1.735000,-0.655357,-1.695916,0.874183
1.755000,-0.700664,-1.804911,0.921229
1.775000,-0.712843,-1.906968,0.955061
1.795000,-0.688063,-1.998852,0.988352
1.815000,-0.645097,-2.074561,1.014122
1.835000,-0.612207,-2.132411,1.024082
1.855000,-0.600540,-2.173139,1.019790
1.875000,-0.607488,-2.197210,1.003559
1.895000,-0.629890,-2.207925,0.977522
1.915000,-0.673622,-2.208650,0.942916
1.935000,-0.743600,-2.202055,0.900474
1.955000,-0.821128,-2.185980,0.853686
1.975000,-0.860295,-2.160661,0.810586
1.995000,-0.842651,-2.128074,0.773944
2.097000,-0.878070,-2.062588,0.747032
2.117000,-0.913956,-1.994635,0.726072
2.137000,-0.941141,-1.928035,0.715001
2.157000,-0.949559,-1.861277,0.711871
2.177000,-0.930154,-1.791593,0.712996
2.197000,-0.893414,-1.719051,0.715696
2.217000,-0.858413,-1.642885,0.716768
2.237000,-0.838527,-1.562691,0.713157
2.257000,-0.833464,-1.478963,0.705503
2.277000,-0.828892,-1.388743,0.695714
2.297000,-0.807538,-1.290545,0.684402
2.317000,-0.755428,-1.217852,0.674606
2.337000,-0.671836,-1.156039,0.670184
2.357000,-0.581328,-1.097632,0.667759
2.377000,-0.546386,-1.048892,0.656742
2.397000,-0.577166,-1.012879,0.637871
2.417000,-0.616169,-0.984016,0.616228
2.437000,-0.615275,-0.956517,0.598209
2.457000,-0.582326,-0.927386,0.584725
2.477000,-0.545810,-0.898471,0.574241
2.497000,-0.523651,-0.872347,0.563163
2.517000,-0.510459,-0.850457,0.551922
2.537000,-0.496427,-0.830167,0.542328
2.557000,-0.476569,-0.811935,0.535610
2.577000,-0.454235,-0.800756,0.530453
2.597000,-0.438685,-0.795728,0.524965
2.617000,-0.427904,-0.793304,0.518770
2.637000,-0.416016,-0.792729,0.511635
2.657000,-0.402139,-0.792354,0.506034
2.677000,-0.394116,-0.789078,0.502694
2.697000,-0.400081,-0.781392,0.500438
2.717000,-0.418374,-0.770265,0.501989
2.737000,-0.439960,-0.753255,0.511149
2.757000,-0.452628,-0.726348,0.530388
2.777000,-0.454679,-0.690246,0.562445
2.797000,-0.458718,-0.646810,0.609045
2.817000,-0.478310,-0.596055,0.670467
2.837000,-0.515513,-0.537230,0.744388
2.857000,-0.558826,-0.470795,0.828931
2.877000,-0.589681,-0.396851,0.922913
2.897000,-0.595984,-0.316500,1.022055
2.917000,-0.571213,-0.228762,1.120095
2.937000,-0.511724,-0.132237,1.208978
2.957000,-0.417423,-0.028710,1.277832
2.977000,-0.290481,0.074846,1.322291
2.997000,-0.145936,0.176267,1.338010
3.017000,-0.009355,0.278583,1.321377
3.037000,0.103208,0.388271,1.276067
3.057000,0.197053,0.503460,1.209493
3.077000,0.285891,0.607933,1.131362
3.097000,0.390359,0.692189,1.044745
3.117000,0.576599,0.678887,1.030832
3.137000,0.770442,0.596028,1.032015
3.157000,0.968954,0.603059,0.879208
3.177000,0.968564,0.596519,0.781183
3.197000,0.984950,0.588680,0.649935
3.217000,1.025372,0.595994,0.510790
3.237000,1.026196,0.601578,0.360855
3.257000,0.985383,0.602627,0.219202
3.277000,0.943276,0.605399,0.085331
3.297000,0.930413,0.614255,-0.029409
3.317000,0.950548,0.626526,-0.121401
3.337000,0.997757,0.637713,-0.187635
3.357000,1.071430,0.646642,-0.227749
3.377000,1.156862,0.653255,-0.245872
3.397000,1.217811,0.654763,-0.246666
3.417000,1.226687,0.650716,-0.231859
3.437000,1.178594,0.644062,-0.196213
3.457000,1.083809,0.634962,-0.138342
3.477000,0.948981,0.624577,-0.065074
3.497000,0.786007,0.605310,0.022432
3.517000,0.627034,0.565357,0.119254
3.537000,0.473075,0.511246,0.188370
3.557000,0.358882,0.468667,0.227780
3.577000,0.312041,0.441339,0.254935
3.597000,0.293089,0.418463,0.258011
3.617000,0.273843,0.401691,0.249189
3.637000,0.261126,0.386121,0.233065
3.657000,0.254902,0.370244,0.213679
3.677000,0.248644,0.353754,0.195997
3.697000,0.242801,0.339070,0.178035
3.717000,0.243919,0.329464,0.157831
3.737000,0.258443,0.324594,0.135912
3.757000,0.284815,0.323858,0.111064
3.777000,0.315578,0.327911,0.079392
3.797000,0.348707,0.336268,0.039550
3.817000,0.386545,0.347898,-0.008348
3.837000,0.426218,0.364281,-0.063268
3.857000,0.462626,0.383800,-0.121375
3.877000,0.510520,0.399912,-0.165601
3.897000,0.582078,0.410299,-0.208405
3.917000,0.676013,0.411601,-0.267562
3.937000,0.770073,0.407443,-0.348373
3.957000,0.833470,0.403444,-0.445283
3.977000,0.846394,0.401790,-0.552281
3.997000,0.815742,0.409648,-0.662110
4.017000,0.770207,0.430205,-0.755119
4.037000,0.733697,0.461065,-0.822018
4.057000,0.711142,0.498810,-0.854589
4.077000,0.698083,0.538772,-0.850052
4.149000,0.667976,0.570630,-0.751354
4.169000,0.638270,0.599698,-0.638195
4.189000,0.618386,0.623236,-0.513257
4.209000,0.607159,0.641886,-0.380036
4.229000,0.594102,0.657070,-0.247416
4.249000,0.577247,0.660752,-0.112719
4.269000,0.572697,0.640935,0.027213
4.289000,0.570601,0.610662,0.145184
4.309000,0.539827,0.587236,0.205813
4.329000,0.484376,0.570161,0.212433
4.349000,0.419820,0.558986,0.183813
4.369000,0.357659,0.552632,0.138088
4.389000,0.310251,0.547998,0.091034
4.409000,0.291193,0.543181,0.052867
4.429000,0.298499,0.536985,0.023469
4.449000,0.325447,0.528436,0.003288
4.469000,0.360747,0.519726,-0.011544
4.489000,0.398702,0.515889,-0.021765
4.509000,0.435941,0.519484,-0.025320
4.529000,0.467731,0.529532,-0.026982
4.549000,0.492480,0.544227,-0.027618
4.569000,0.511624,0.563311,-0.029168
4.589000,0.532839,0.588608,-0.032231
4.609000,0.596747,0.617794,-0.022279
4.629000,0.720082,0.643064,0.004094
4.649000,0.851354,0.664546,0.034863
4.669000,0.989453,0.687388,0.046848
4.689000,1.111191,0.699848,0.022889
4.709000,1.172332,0.693628,-0.041018
4.729000,1.175909,0.676619,-0.133751
4.749000,1.136611,0.662804,-0.233989
4.769000,1.072613,0.656310,-0.338731
4.789000,1.006850,0.659681,-0.444096
4.809000,0.962431,0.672659,-0.534184
4.829000,0.943509,0.693004,-0.604136
4.849000,0.935241,0.717738,-0.648855
4.869000,0.924734,0.744233,-0.666018
4.889000,0.903230,0.771529,-0.658511
4.909000,0.870333,0.797972,-0.632297
4.929000,0.832691,0.821015,-0.593637
4.949000,0.796082,0.838627,-0.544766
4.969000,0.755810,0.853349,-0.485297
4.989000,0.700637,0.868486,-0.415620
5.009000,0.628849,0.875509,-0.326910
5.029000,0.544602,0.860391,-0.214444
5.049000,0.443271,0.840575,-0.103093
5.069000,0.314038,0.831904,-0.018651
5.089000,0.183996,0.836515,0.031161
5.109000,0.093692,0.851559,0.056043
5.129000,0.059949,0.872529,0.065561
5.149000,0.084837,0.891960,0.070412
5.169000,0.155397,0.903974,0.075155
5.189000,0.251802,0.905770,0.081493
5.209000,0.355200,0.896627,0.091227
5.229000,0.451458,0.885568,0.099194
5.249000,0.531361,0.880106,0.106579
5.269000,0.588800,0.883299,0.115745
5.289000,0.623363,0.891700,0.124876
5.309000,0.644695,0.903379,0.134479
5.329000,0.662955,0.918782,0.146884
5.349000,0.689305,0.937199,0.164127
5.369000,0.742098,0.952121,0.185999
5.389000,0.855036,0.961332,0.205236
5.409000,1.010612,0.969497,0.199008
5.429000,1.166368,0.971461,0.155752
5.449000,1.275244,0.962404,0.080233
5.469000,1.309799,0.945768,-0.019335
5.489000,1.273199,0.930467,-0.133813
5.509000,1.184545,0.924850,-0.260753
5.529000,1.072898,0.933161,-0.386930
5.549000,0.979480,0.955431,-0.494210
5.569000,0.936787,0.988877,-0.570023
5.589000,0.942944,1.031010,-0.610487
5.609000,0.979394,1.079965,-0.620120
5.629000,1.027778,1.133282,-0.607329
5.649000,1.075162,1.188137,-0.579843
5.669000,1.112475,1.243844,-0.541366
5.689000,1.141988,1.300122,-0.491477
5.709000,1.170735,1.349938,-0.428949
5.729000,1.199143,1.384636,-0.354544
5.749000,1.217947,1.399457,-0.268985
5.769000,1.212753,1.398133,-0.167148
5.789000,1.168895,1.389116,-0.047394
5.809000,1.088258,1.377020,0.090841
5.829000,0.999370,1.348689,0.259736
5.849000,0.954001,1.300861,0.442396
5.869000,0.938371,1.256693,0.584590
5.889000,0.925895,1.222441,0.683608
5.909000,0.900820,1.191346,0.728544
5.929000,0.850120,1.155573,0.731629
5.949000,0.771669,1.112215,0.712329
5.969000,0.673896,1.063017,0.679671
5.989000,0.575032,1.013694,0.642597
6.009000,0.503947,0.973772,0.604178
6.029000,0.484947,0.944209,0.563707
6.049000,0.515558,0.920307,0.519108
6.069000,0.578763,0.898637,0.465681
6.089000,0.664940,0.881989,0.399290
6.109000,0.768600,0.870888,0.316845
6.129000,0.888832,0.863880,0.216731
