gyro_time_list,gyro_x_list,gyro_y_list,gyro_z_list
0.061,-0.240482,-0.085401,0.117643
0.081,-0.179596,-0.084069,0.133498
0.101,-0.132672,-0.083625,0.149807
0.121,-0.089864,-0.088666,0.168975
0.141,-0.051274,-0.102569,0.189014
0.161,-0.006394,-0.12289,0.20768
0.181,0.059572,-0.152418,0.227066
0.201,0.154142,-0.190815,0.249027
0.221,0.266791,-0.233543,0.271636
0.241,0.383597,-0.279295,0.29351
0.261,0.500457,-0.329863,0.315806
0.281,0.614212,-0.382177,0.336555
0.301,0.715634,-0.433316,0.354691
0.321,0.802844,-0.480295,0.366759
0.341,0.882458,-0.523676,0.37735
0.361,0.954154,-0.566162,0.385188
0.381,1.017066,-0.606403,0.39019
0.401,1.07455,-0.643555,0.393516
0.421,1.124901,-0.678099,0.395081
0.441,1.163594,-0.711379,0.395971
0.461,1.190881,-0.741937,0.395431
0.481,1.218938,-0.766768,0.392888
0.501,1.252768,-0.789108,0.390042
0.521,1.291069,-0.811798,0.387494
0.541,1.332972,-0.831596,0.3847
0.561,1.37826,-0.847381,0.383001
0.581,1.429713,-0.863064,0.384037
0.601,1.482204,-0.881105,0.38739
0.621,1.532769,-0.899147,0.392969
0.641,1.583181,-0.916728,0.401253
0.661,1.630963,-0.933633,0.411764
0.681,1.670831,-0.948664,0.423696
0.701,1.701748,-0.961584,0.43638
0.721,1.726922,-0.971248,0.450104
0.741,1.745627,-0.97771,0.465661
0.761,1.753825,-0.981339,0.482099
0.781,1.7513,-0.980979,0.498514
0.801,1.743197,-0.976998,0.516181
0.821,1.733912,-0.971555,0.53599
0.841,1.722249,-0.964693,0.556585
0.861,1.708556,-0.955516,0.577985
0.881,1.694385,-0.944412,0.600447
0.901,1.675322,-0.93173,0.622008
0.921,1.653314,-0.917872,0.642105
0.941,1.63286,-0.903231,0.661544
0.961,1.611391,-0.888968,0.679936
0.981,1.588497,-0.875441,0.696827
1.001,1.565984,-0.861418,0.711581
1.021,1.544118,-0.847355,0.725066
1.041,1.522213,-0.834302,0.736935
1.061,1.49861,-0.821413,0.74653
1.081,1.473575,-0.807438,0.754344
1.101,1.448475,-0.794599,0.761923
1.121,1.41693,-0.782699,0.768268
1.141,1.376625,-0.771375,0.772478
1.161,1.333401,-0.761652,0.775306
1.181,1.28664,-0.754143,0.776605
1.201,1.229065,-0.746623,0.775047
1.221,1.163801,-0.738807,0.770636
1.241,1.101169,-0.732914,0.763618
1.261,1.043286,-0.727714,0.75353
1.281,0.985902,-0.720639,0.740549
1.301,0.929718,-0.712505,0.72492
1.321,0.879018,-0.705014,0.706353
1.341,0.836337,-0.698254,0.684721
1.361,0.798436,-0.689946,0.660065
1.381,0.759995,-0.680282,0.633007
1.401,0.716842,-0.669723,0.604164
1.421,0.669457,-0.658242,0.573957
1.441,0.622679,-0.644332,0.543137
1.461,0.582251,-0.627518,0.512617
1.481,0.548758,-0.608954,0.482907
1.501,0.517134,-0.589036,0.453783
1.521,0.48299,-0.568287,0.425192
1.541,0.447355,-0.548273,0.395978
1.561,0.413513,-0.5291,0.365394
1.581,0.383603,-0.509086,0.333531
1.601,0.35567,-0.489726,0.301328
1.621,0.325588,-0.473175,0.268263
1.641,0.291684,-0.456515,0.234037
1.661,0.256487,-0.43874,0.20014
1.681,0.222513,-0.423554,0.167197
1.701,0.188114,-0.412701,0.134569
1.721,0.153217,-0.400648,0.103153
1.741,0.124372,-0.386214,0.073783
1.761,0.104067,-0.375871,0.047426
1.781,0.087447,-0.370357,0.022942
1.801,0.067352,-0.361031,-0.000178
1.821,0.043845,-0.349143,-0.019765
1.841,0.015199,-0.341646,-0.036279
1.861,-0.022039,-0.335075,-0.05089
1.881,-0.070901,-0.321708,-0.062653
1.901,-0.126791,-0.30316,-0.070584
1.921,-0.186537,-0.285589,-0.07528
1.941,-0.251002,-0.267183,-0.078047
1.961,-0.319876,-0.242184,-0.077909
1.981,-0.386251,-0.211735,-0.074431
2.001,-0.445163,-0.179349,-0.068111
2.021,-0.498697,-0.14315,-0.05887
2.041,-0.553112,-0.100447,-0.048438
2.124,-0.621843,-0.035631,-0.025082
2.144,-0.69011,0.032719,0.001068
2.164,-0.729748,0.102912,0.028849
2.184,-0.744994,0.17929,0.058433
2.204,-0.76256,0.263545,0.087546
2.224,-0.78886,0.352601,0.112431
2.244,-0.804588,0.438722,0.136258
2.264,-0.800812,0.523894,0.160931
2.284,-0.792501,0.614929,0.184683
2.304,-0.795599,0.710274,0.205263
2.324,-0.808368,0.806088,0.2226
2.344,-0.812614,0.894559,0.241246
2.364,-0.801367,0.974392,0.260118
2.384,-0.79086,1.052139,0.275979
2.404,-0.788703,1.127395,0.288664
2.424,-0.790136,1.193328,0.30148
2.444,-0.792651,1.249154,0.314704
2.464,-0.793094,1.300918,0.326389
2.484,-0.788173,1.343165,0.33614
2.504,-0.777326,1.368945,0.345092
2.524,-0.764818,1.380733,0.351146
2.544,-0.753032,1.382304,0.354429
2.564,-0.744068,1.378808,0.355091
2.584,-0.738403,1.375422,0.354791
2.604,-0.732945,1.372689,0.353534
2.624,-0.727117,1.364588,0.351337
2.644,-0.721954,1.348497,0.348363
2.664,-0.719274,1.32926,0.343645
2.684,-0.719,1.310392,0.337781
2.704,-0.712729,1.292329,0.332193
2.724,-0.7003,1.275936,0.326524
2.744,-0.686335,1.261305,0.320843
2.764,-0.67213,1.248674,0.315362
2.784,-0.657593,1.237713,0.310527
2.804,-0.642278,1.228565,0.306537
2.824,-0.625148,1.22302,0.303142
2.844,-0.607142,1.216797,0.300226
2.864,-0.591605,1.2048,0.297646
2.884,-0.579968,1.189074,0.295432
2.904,-0.569288,1.172845,0.294163
2.924,-0.556164,1.156515,0.29435
2.944,-0.541336,1.139022,0.295624
2.964,-0.527841,1.121129,0.297779
2.984,-0.514676,1.104641,0.300228
3.004,-0.497308,1.088191,0.303366
3.024,-0.47425,1.069035,0.306972
3.044,-0.444165,1.047486,0.31172
3.064,-0.412272,1.02333,0.316445
3.084,-0.386475,0.996736,0.318625
3.104,-0.364861,0.969016,0.318666
3.124,-0.342155,0.941388,0.31786
3.144,-0.323032,0.914667,0.31531
3.164,-0.313426,0.890611,0.310608
3.184,-0.309531,0.868286,0.304419
3.204,-0.303428,0.8459,0.298036
3.224,-0.294938,0.824269,0.291918
3.244,-0.286222,0.804198,0.2856
3.264,-0.27596,0.786346,0.278909
3.284,-0.265054,0.769356,0.271889
3.304,-0.257155,0.751359,0.264007
3.324,-0.253123,0.733156,0.255024
3.344,-0.251406,0.715958,0.245572
3.364,-0.249159,0.700892,0.235977
3.384,-0.2416,0.685614,0.227557
3.404,-0.231689,0.669715,0.221636
3.424,-0.224843,0.65265,0.216295
3.444,-0.222395,0.633875,0.211871
3.464,-0.222608,0.613706,0.207803
3.484,-0.22302,0.593315,0.204076
3.504,-0.222307,0.573524,0.200269
3.524,-0.220212,0.554667,0.196519
3.544,-0.216671,0.537189,0.193224
3.564,-0.211932,0.520939,0.190338
3.584,-0.206498,0.505919,0.187574
3.604,-0.201006,0.491946,0.184895
3.624,-0.195959,0.478837,0.182158
3.644,-0.19085,0.466603,0.179374
3.664,-0.185001,0.45491,0.176808
3.684,-0.179536,0.442747,0.174694
3.704,-0.17648,0.43014,0.172812
3.724,-0.176342,0.418066,0.171498
3.744,-0.179199,0.406127,0.170653
3.764,-0.1851,0.392876,0.169824
3.784,-0.192419,0.377747,0.168273
3.804,-0.199487,0.361429,0.16722
3.824,-0.206779,0.344284,0.165784
3.844,-0.215475,0.325188,0.163278
3.864,-0.223378,0.304095,0.160153
3.884,-0.227473,0.281418,0.156669
3.904,-0.227146,0.256896,0.153092
3.924,-0.224974,0.229987,0.149056
3.944,-0.223462,0.201574,0.144549
3.964,-0.223631,0.173015,0.139102
3.984,-0.224667,0.144012,0.132882
4.004,-0.22468,0.113747,0.126363
4.024,-0.222387,0.081805,0.120161
4.044,-0.218275,0.049044,0.114384
4.064,-0.213824,0.01607,0.108674
4.084,-0.209814,-0.017328,0.103028
4.104,-0.206138,-0.052138,0.09775
4.224,-0.201884,-0.088986,0.092666
4.244,-0.197667,-0.126306,0.087343
4.264,-0.194339,-0.164699,0.081538
4.284,-0.192636,-0.204967,0.075431
4.304,-0.191417,-0.245487,0.068616
4.324,-0.188801,-0.286639,0.061655
4.344,-0.184346,-0.329033,0.054604
4.364,-0.178392,-0.372294,0.047468
4.384,-0.171196,-0.415432,0.039848
4.404,-0.16333,-0.458314,0.03204
4.424,-0.156167,-0.501968,0.024534
4.444,-0.150108,-0.546103,0.01652
4.464,-0.14332,-0.589164,0.007144
4.484,-0.133607,-0.631252,-0.00335
4.504,-0.120557,-0.673902,-0.015051
4.524,-0.105525,-0.714983,-0.028202
4.544,-0.088866,-0.753757,-0.041627
4.564,-0.070001,-0.793323,-0.054906
4.584,-0.050138,-0.833492,-0.067519
4.604,-0.030176,-0.871786,-0.079252
4.624,-0.009417,-0.908731,-0.090553
4.644,0.014661,-0.946426,-0.10141
4.664,0.042818,-0.983504,-0.111696
4.684,0.074134,-1.019398,-0.121381
4.704,0.106293,-1.052609,-0.130526
4.724,0.13498,-1.079991,-0.139021
4.744,0.158063,-1.101178,-0.1459
4.764,0.174881,-1.11645,-0.151579
4.784,0.186481,-1.12501,-0.155646
4.804,0.195764,-1.128255,-0.156772
4.824,0.20512,-1.128278,-0.154889
4.844,0.213909,-1.12739,-0.15024
4.864,0.220452,-1.125409,-0.143079
4.884,0.223662,-1.123368,-0.133948
4.904,0.224491,-1.123391,-0.123273
4.924,0.223396,-1.125936,-0.111611
4.944,0.223249,-1.128279,-0.099146
4.964,0.226998,-1.130179,-0.086272
4.984,0.240634,-1.133564,-0.072078
5.004,0.269395,-1.139568,-0.056052
5.024,0.309879,-1.142553,-0.038375
5.044,0.348542,-1.141208,-0.020429
5.064,0.378513,-1.141016,-0.002273
5.084,0.405608,-1.143969,0.016611
5.104,0.426929,-1.145526,0.035876
5.124,0.436616,-1.14514,0.054323
5.144,0.439953,-1.14715,0.071932
5.164,0.446369,-1.151741,0.089755
5.184,0.453211,-1.154747,0.106448
5.204,0.457582,-1.156075,0.120625
5.224,0.464134,-1.158884,0.132847
5.244,0.472883,-1.160262,0.144761
5.264,0.475761,-1.158191,0.154244
5.284,0.476505,-1.156341,0.161142
5.304,0.479818,-1.155837,0.16588
5.324,0.48374,-1.15394,0.168925
5.344,0.481112,-1.149462,0.170604
5.364,0.472802,-1.144647,0.170288
5.384,0.463818,-1.14045,0.168095
5.404,0.45568,-1.13502,0.164446
5.424,0.445653,-1.127583,0.159585
5.444,0.433453,-1.119074,0.152863
5.464,0.422718,-1.109508,0.144736
5.484,0.412963,-1.097889,0.135383
5.504,0.40144,-1.084311,0.12499
5.524,0.387893,-1.069743,0.113453
5.544,0.374016,-1.05236,0.101914
5.564,0.359076,-1.032134,0.090754
5.584,0.343133,-1.010315,0.079461
5.604,0.328455,-0.985555,0.068244
5.624,0.314861,-0.958133,0.057213
5.644,0.300559,-0.929253,0.045908
5.664,0.287202,-0.898263,0.033427
5.684,0.278827,-0.86533,0.019535
5.704,0.275307,-0.830355,0.004225
5.724,0.273384,-0.792971,-0.012854
5.744,0.272672,-0.755025,-0.032063
5.764,0.274714,-0.719752,-0.053041
5.784,0.278362,-0.691567,-0.075016
5.804,0.278167,-0.670994,-0.097889
5.824,0.269055,-0.65302,-0.12128
5.844,0.25078,-0.636752,-0.143866
5.864,0.225156,-0.625639,-0.165717
5.884,0.191113,-0.622254,-0.186848
5.904,0.146116,-0.618919,-0.206964
5.924,0.091044,-0.611618,-0.225884
5.944,0.02895,-0.605282,-0.243725
5.964,-0.037223,-0.597406,-0.260667
5.984,-0.102078,-0.583107,-0.275108
6.004,-0.157238,-0.563482,-0.28644
6.024,-0.197989,-0.543088,-0.290196
6.044,-0.229655,-0.524251,-0.286559
6.064,-0.269386,-0.501895,-0.276559
6.084,-0.312463,-0.471005,-0.261077
6.104,-0.346171,-0.437445,-0.240207
6.124,-0.369987,-0.403641,-0.215312
6.144,-0.394492,-0.356192,-0.185544
6.164,-0.427282,-0.293774,-0.151508
6.184,-0.476648,-0.228014,-0.115791
6.204,-0.539207,-0.165204,-0.077954
6.28,-0.600871,-0.081892,-0.037722
6.3,-0.647782,0.004509,0.005015
6.32,-0.681449,0.100959,0.05087
6.34,-0.711946,0.206175,0.093972
6.36,-0.743151,0.313911,0.133943
6.38,-0.772057,0.42369,0.175036
6.4,-0.795717,0.541437,0.216549
6.42,-0.817338,0.660633,0.255034
6.44,-0.835301,0.770686,0.292838
6.46,-0.848229,0.873099,0.331147
6.48,-0.858164,0.975252,0.372175
6.5,-0.868985,1.081375,0.417445
6.52,-0.884678,1.190283,0.464856
6.54,-0.902723,1.297971,0.515852
6.56,-0.91825,1.404941,0.568971
6.58,-0.929039,1.507377,0.618782
6.6,-0.932282,1.593959,0.668205
6.62,-0.930855,1.663727,0.718083
6.64,-0.933312,1.724257,0.763138
6.66,-0.937613,1.777625,0.802224
6.68,-0.921513,1.821408,0.833266
6.7,-0.882575,1.84936,0.857832
6.72,-0.835112,1.864693,0.87342
6.74,-0.791443,1.870205,0.878971
6.76,-0.749509,1.867079,0.877215
6.78,-0.700743,1.854697,0.869857
6.8,-0.645477,1.835187,0.857117
6.822,-0.586215,1.813425,0.839893
6.842,-0.526708,1.790641,0.819183
6.862,-0.468686,1.765386,0.794387
6.882,-0.409233,1.737443,0.768587
6.902,-0.353669,1.706392,0.743314
6.922,-0.31355,1.671453,0.71628
6.942,-0.29024,1.633073,0.687792
6.962,-0.274009,1.591367,0.659402
6.982,-0.261315,1.547702,0.632103
7.002,-0.257224,1.504362,0.605029
7.022,-0.25584,1.460811,0.579182
7.042,-0.251816,1.414767,0.556383
7.062,-0.246695,1.369077,0.53431
7.082,-0.244976,1.325965,0.512299
7.102,-0.242062,1.284856,0.490885
7.122,-0.233255,1.244864,0.471549
7.142,-0.221088,1.206581,0.45029
7.162,-0.208745,1.167686,0.42929
7.182,-0.197978,1.126608,0.408118
7.202,-0.191974,1.079833,0.389262
7.222,-0.188564,1.030457,0.371336
7.242,-0.187839,0.980531,0.355279
7.262,-0.189842,0.931696,0.340748
7.282,-0.193944,0.886141,0.327274
7.302,-0.197658,0.844979,0.314859
7.322,-0.200745,0.807219,0.304087
7.342,-0.204525,0.772093,0.295246
7.362,-0.209917,0.739823,0.287382
7.382,-0.215206,0.71089,0.280352
7.402,-0.218538,0.684848,0.274082
7.422,-0.219892,0.661058,0.268059
7.442,-0.219252,0.640057,0.262184
7.462,-0.216658,0.621701,0.256579
7.482,-0.21137,0.605586,0.25134
7.502,-0.203321,0.590412,0.246538
7.522,-0.195177,0.575123,0.241786
7.542,-0.188543,0.559793,0.237163
7.562,-0.181647,0.545292,0.232841
7.582,-0.172939,0.530863,0.229028
7.602,-0.165431,0.514552,0.225676
7.622,-0.163293,0.496676,0.22207
7.642,-0.169076,0.478041,0.217686
7.662,-0.180451,0.460219,0.213573
7.682,-0.194698,0.44345,0.209825
7.702,-0.211506,0.42663,0.202693
7.722,-0.22172,0.409134,0.193626
7.742,-0.214126,0.388726,0.187371
7.762,-0.193119,0.363678,0.183129
7.782,-0.170579,0.334675,0.17809
7.802,-0.153846,0.302551,0.171151
7.822,-0.145338,0.267159,0.16188
7.842,-0.140559,0.228378,0.151185
7.862,-0.135596,0.18729,0.141085
7.882,-0.131597,0.144818,0.130654
7.902,-0.12761,0.100902,0.119958
7.922,-0.121115,0.054816,0.109188
7.942,-0.114059,0.006698,0.09841
7.962,-0.110368,-0.041362,0.086452
7.982,-0.108858,-0.088818,0.072879
8.002,-0.102641,-0.137306,0.059342
8.022,-0.090959,-0.190436,0.046995
8.042,-0.078525,-0.246935,0.034387
8.062,-0.068289,-0.304139,0.020781
8.082,-0.061227,-0.358916,0.005623
8.102,-0.054026,-0.410083,-0.01022
8.122,-0.043844,-0.460129,-0.025426
8.142,-0.032054,-0.508755,-0.040242
8.162,-0.021394,-0.552037,-0.05598
8.182,-0.010301,-0.588566,-0.07264
8.202,0.003972,-0.622672,-0.091326
8.222,0.018543,-0.661964,-0.112367
8.242,0.029146,-0.702088,-0.137315
8.262,0.033781,-0.735573,-0.16721
8.386,0.063893,-0.769587,-0.181906
8.406,0.100578,-0.807515,-0.190736
8.426,0.142031,-0.848183,-0.193718
8.446,0.183233,-0.885903,-0.192927
8.466,0.222368,-0.918587,-0.189931
8.486,0.261905,-0.949093,-0.184937
8.506,0.305924,-0.980456,-0.176863
8.526,0.353656,-1.009789,-0.165723
8.546,0.401451,-1.036273,-0.151536
8.566,0.44366,-1.0626,-0.134286
8.586,0.476141,-1.088443,-0.114831
8.606,0.499214,-1.111133,-0.093533
8.626,0.517621,-1.131207,-0.070235
8.646,0.53972,-1.151754,-0.044726
8.666,0.5682,-1.17247,-0.017082
8.686,0.601068,-1.191433,0.012235
8.706,0.642595,-1.209942,0.044864
8.726,0.694223,-1.227449,0.080002
8.746,0.745323,-1.242692,0.115344
8.766,0.789521,-1.258747,0.150829
8.786,0.825774,-1.277109,0.186159
8.806,0.847775,-1.295023,0.219299
8.826,0.853316,-1.310642,0.247364
8.846,0.852936,-1.325621,0.27127
8.866,0.854074,-1.339858,0.292141
8.886,0.854561,-1.351384,0.309395
8.906,0.852448,-1.359877,0.322883
8.926,0.854083,-1.367876,0.333828
8.946,0.862063,-1.375269,0.343872
8.966,0.869353,-1.380391,0.352593
8.986,0.871701,-1.385033,0.35884
9.006,0.870005,-1.392134,0.363758
9.026,0.86409,-1.400387,0.36875
9.046,0.848513,-1.410282,0.371736
9.066,0.819437,-1.422424,0.372497
9.086,0.777787,-1.433448,0.371553
9.106,0.727442,-1.439475,0.3687
9.126,0.67599,-1.440918,0.36353
9.146,0.631207,-1.43903,0.356239
9.166,0.59467,-1.433452,0.34804
9.186,0.562763,-1.422587,0.339092
9.206,0.5339,-1.407938,0.329332
9.226,0.511165,-1.39048,0.319482
9.246,0.496907,-1.368947,0.310199
9.266,0.488553,-1.34418,0.301523
9.286,0.480861,-1.317333,0.29313
9.306,0.472717,-1.287271,0.285754
9.326,0.462039,-1.252419,0.279763
9.346,0.447706,-1.214645,0.274715
9.366,0.433384,-1.174929,0.270173
9.386,0.421731,-1.131567,0.26587
9.406,0.411986,-1.084668,0.261327
9.426,0.402175,-1.035536,0.256212
9.446,0.392076,-0.98402,0.25028
9.466,0.382972,-0.92975,0.243353
9.486,0.374832,-0.872815,0.235435
9.506,0.366136,-0.81411,0.226193
9.526,0.356388,-0.753505,0.215399
9.546,0.347293,-0.688424,0.203278
9.566,0.340847,-0.620278,0.189638
9.586,0.334758,-0.552458,0.174182
9.606,0.325721,-0.487257,0.156807
9.626,0.314038,-0.42331,0.137235
9.646,0.300914,-0.362729,0.115517
9.666,0.285804,-0.310659,0.091696
9.686,0.267461,-0.268681,0.065517
9.706,0.245089,-0.228331,0.037605
9.726,0.219906,-0.187615,0.007709
9.746,0.192871,-0.156515,-0.023733
9.766,0.162924,-0.137475,-0.054043
9.786,0.125882,-0.115337,-0.082164
9.806,0.078219,-0.080485,-0.108611
9.826,0.024023,-0.043996,-0.13394
9.846,-0.026719,-0.014987,-0.157584
9.866,-0.068612,0.020216,-0.177676
9.886,-0.105275,0.070683,-0.19438
9.906,-0.139328,0.126123,-0.208028
9.926,-0.174071,0.177753,-0.218165
9.946,-0.212701,0.232819,-0.223785
9.966,-0.258927,0.300842,-0.223819
9.986,-0.30232,0.375316,-0.218056
10.006,-0.329311,0.444003,-0.210206
10.026,-0.350128,0.51056,-0.197122
10.046,-0.390007,0.579089,-0.179842
10.066,-0.456756,0.6477,-0.161177
10.086,-0.542402,0.718036,-0.142668
10.106,-0.640011,0.789975,-0.122848
10.126,-0.743778,0.859236,-0.102003
10.146,-0.844919,0.922565,-0.078638
10.166,-0.928693,0.987009,-0.053648
10.186,-0.982774,1.05245,-0.029376
10.206,-1.011533,1.112496,-0.005517
10.226,-1.03452,1.166822,0.016706
10.246,-1.05932,1.218228,0.037888
10.266,-1.07831,1.268593,0.058528
10.286,-1.086266,1.314874,0.078952
10.306,-1.089057,1.355375,0.099416
10.326,-1.096352,1.393905,0.119938
10.346,-1.108395,1.433907,0.141467
10.366,-1.119266,1.473923,0.165368
10.443,-1.098697,1.502034,0.189689
10.463,-1.080473,1.527586,0.212194
10.483,-1.068433,1.55018,0.233321
10.503,-1.061173,1.569665,0.253182
10.523,-1.059266,1.584652,0.270804
10.543,-1.059571,1.595852,0.287172
10.563,-1.058248,1.605793,0.302816
10.583,-1.053279,1.612575,0.316311
10.603,-1.040109,1.612399,0.32794
10.623,-1.020226,1.606146,0.338537
10.643,-0.998915,1.599643,0.347658
10.663,-0.978573,1.594754,0.354627
10.683,-0.957112,1.588346,0.359321
10.703,-0.929767,1.578627,0.36356
10.723,-0.897826,1.567106,0.366813
10.743,-0.86819,1.556004,0.367612
10.763,-0.841451,1.545183,0.366328
10.783,-0.810724,1.531788,0.364648
10.803,-0.772882,1.515838,0.362917
10.824,-0.737284,1.497993,0.359725
10.844,-0.709616,1.478438,0.354906
10.864,-0.683103,1.456681,0.349622
10.884,-0.648272,1.433412,0.344953
10.904,-0.603935,1.410031,0.340293
10.924,-0.555328,1.387352,0.337133
10.944,-0.510505,1.36302,0.333508
10.964,-0.469356,1.336377,0.329055
10.984,-0.428467,1.309454,0.325004
11.004,-0.390158,1.282592,0.320642
11.024,-0.359866,1.255734,0.315278
11.044,-0.340487,1.229259,0.308765
11.064,-0.330928,1.204414,0.30136
11.084,-0.325775,1.18105,0.292265
11.104,-0.318643,1.15589,0.282657
11.124,-0.30795,1.128812,0.274357
11.144,-0.303886,1.097589,0.266739
11.164,-0.306755,1.065034,0.259689
11.184,-0.313726,1.032182,0.253056
11.204,-0.322075,0.999141,0.246928
11.224,-0.330348,0.967172,0.240994
11.244,-0.337583,0.937028,0.235093
11.264,-0.342095,0.908529,0.229225
11.284,-0.343291,0.881032,0.223899
11.304,-0.340963,0.854685,0.219013
11.324,-0.336045,0.828959,0.214425
11.344,-0.33089,0.803934,0.209823
11.364,-0.327011,0.779498,0.205192
11.384,-0.324348,0.755822,0.200561
11.404,-0.322012,0.733522,0.19602
11.424,-0.317203,0.713166,0.192069
11.444,-0.307828,0.694094,0.189031
11.464,-0.295495,0.675329,0.18714
11.484,-0.282845,0.656746,0.185904
11.504,-0.272796,0.63895,0.185304
11.524,-0.263945,0.621933,0.185556
11.544,-0.255017,0.603892,0.185818
11.564,-0.248318,0.584308,0.185415
11.584,-0.244111,0.562769,0.183931
11.604,-0.240135,0.538785,0.182387
11.624,-0.235776,0.512041,0.180712
11.644,-0.232816,0.482232,0.178027
11.664,-0.231315,0.450045,0.174338
11.684,-0.230385,0.416123,0.1692
11.704,-0.231534,0.377145,0.162792
11.724,-0.233318,0.332589,0.155508
11.744,-0.235626,0.285572,0.146507
11.764,-0.243182,0.235344,0.135165
11.784,-0.253054,0.180699,0.121209
11.804,-0.255406,0.121803,0.106307
11.824,-0.248715,0.058862,0.091721
11.844,-0.239272,-0.006451,0.077465
11.864,-0.233225,-0.07106,0.063244
11.884,-0.229678,-0.136354,0.048121
11.904,-0.223495,-0.204441,0.032081
11.924,-0.215034,-0.273778,0.015942
11.944,-0.207595,-0.342951,-0.0009
11.964,-0.201839,-0.411068,-0.019453
11.984,-0.194626,-0.477095,-0.039264
12.004,-0.182203,-0.542305,-0.058982
12.024,-0.166076,-0.606341,-0.078242
12.044,-0.151322,-0.667748,-0.097353
12.064,-0.138162,-0.727391,-0.116806
12.084,-0.124001,-0.788253,-0.136966
12.104,-0.107083,-0.850309,-0.156392
12.124,-0.088523,-0.910097,-0.174979
12.144,-0.066602,-0.965656,-0.192106
12.164,-0.037492,-1.020808,-0.206454
12.184,-0.00064,-1.075546,-0.217685
12.204,0.041034,-1.126337,-0.225608
12.224,0.082042,-1.171866,-0.230731
12.244,0.124421,-1.214473,-0.234322
12.264,0.175711,-1.253652,-0.235446
12.284,0.238995,-1.288394,-0.232471
12.304,0.310369,-1.320622,-0.225052
12.324,0.378962,-1.351845,-0.214773
12.344,0.440158,-1.381022,-0.202417
12.364,0.499731,-1.407634,-0.187609
12.384,0.558432,-1.429137,-0.169906
12.404,0.604492,-1.445839,-0.150859
12.424,0.635224,-1.46141,-0.130516
12.504,0.657636,-1.475897,-0.106138
12.524,0.674081,-1.488734,-0.082179
12.544,0.689263,-1.498442,-0.059347
12.564,0.705475,-1.507719,-0.037392
12.584,0.723431,-1.518309,-0.015734
12.604,0.740775,-1.528165,0.004976
12.624,0.755403,-1.536309,0.024114
12.644,0.767241,-1.544038,0.041535
12.664,0.776811,-1.551467,0.057435
12.684,0.782739,-1.557191,0.07209
12.704,0.782081,-1.561418,0.084635
12.724,0.773482,-1.565235,0.094857
12.744,0.761069,-1.5675,0.103681
12.764,0.747901,-1.56714,0.11154
12.784,0.734035,-1.565657,0.117828
12.804,0.720098,-1.56415,0.122517
12.825,0.708,-1.561306,0.126881
12.845,0.698274,-1.556208,0.130727
12.865,0.690998,-1.550218,0.133698
12.885,0.68619,-1.544824,0.13633
12.905,0.683255,-1.539696,0.139174
12.925,0.67682,-1.534777,0.142245
12.945,0.661751,-1.529992,0.144477
12.965,0.640975,-1.525214,0.145644
12.985,0.62173,-1.520531,0.145353
13.005,0.604913,-1.514543,0.1438
13.025,0.5864,-1.507166,0.140964
13.045,0.566168,-1.499743,0.136401
13.065,0.545342,-1.491501,0.130625
13.085,0.523255,-1.480316,0.12406
13.105,0.501433,-1.466319,0.116921
13.125,0.481961,-1.450187,0.109586
13.145,0.465494,-1.431415,0.102583
13.165,0.449156,-1.409619,0.096274
13.185,0.430691,-1.384853,0.090237
13.205,0.411696,-1.356852,0.084597
13.225,0.395883,-1.325305,0.079564
13.245,0.382528,-1.290174,0.07551
13.265,0.368642,-1.2517,0.072233
13.285,0.355062,-1.210241,0.069489
13.305,0.343531,-1.166305,0.066939
13.325,0.332536,-1.120008,0.064275
13.345,0.319367,-1.071441,0.061397
13.365,0.304686,-1.020389,0.058422
13.385,0.290623,-0.967325,0.055247
13.405,0.276531,-0.912505,0.051773
13.425,0.260701,-0.855813,0.047851
13.445,0.243467,-0.79515,0.04348
13.465,0.226698,-0.731369,0.038576
13.485,0.211073,-0.665038,0.032934
13.505,0.196677,-0.59482,0.026383
13.525,0.183897,-0.521619,0.018629
13.545,0.174528,-0.448423,0.009849
13.565,0.166865,-0.377231,-0.000267
13.585,0.158221,-0.309519,-0.012107
13.605,0.146681,-0.247646,-0.025408
13.625,0.132795,-0.192117,-0.039162
13.645,0.112828,-0.140916,-0.053654
13.665,0.085479,-0.09032,-0.068932
13.685,0.051946,-0.040931,-0.084872
13.705,0.013611,0.000492,-0.09954
13.725,-0.031979,0.037154,-0.113161
13.745,-0.087738,0.081853,-0.125779
13.765,-0.152302,0.135798,-0.137003
13.785,-0.221526,0.193426,-0.146742
13.805,-0.292749,0.252052,-0.154803
13.825,-0.363889,0.318398,-0.160556
13.845,-0.430229,0.396731,-0.163718
13.865,-0.484942,0.477159,-0.164175
13.885,-0.52793,0.554097,-0.161794
13.905,-0.574746,0.638239,-0.157401
13.925,-0.633338,0.733688,-0.151766
13.945,-0.68899,0.825103,-0.143827
13.965,-0.740607,0.900985,-0.130544
13.985,-0.803987,0.97902,-0.115573
14.005,-0.874209,1.063363,-0.099038
14.025,-0.948959,1.136509,-0.081547
14.045,-1.022421,1.192285,-0.062317
14.065,-1.085582,1.246257,-0.04011
14.085,-1.123464,1.304974,-0.016708
14.105,-1.138993,1.362918,0.005905
14.125,-1.14361,1.417202,0.027167
14.145,-1.147537,1.46719,0.047444
14.165,-1.151058,1.51407,0.067142
14.185,-1.146364,1.557686,0.086103
14.205,-1.133609,1.598222,0.103576
14.225,-1.119126,1.636767,0.120563
14.245,-1.109069,1.675583,0.138215
14.265,-1.098033,1.714185,0.155836
14.285,-1.080366,1.752235,0.17334
14.305,-1.060455,1.790884,0.191115
14.325,-1.044629,1.832381,0.209445
14.345,-1.028959,1.875337,0.227878
14.365,-1.012693,1.910805,0.246367
14.385,-1.000456,1.938257,0.264934
14.405,-0.996492,1.963427,0.282912
14.425,-0.99504,1.984778,0.298
14.445,-0.992653,1.996296,0.310966
14.465,-0.996839,1.998595,0.322042
14.485,-1.01991,1.99636,0.330215
14.557,-0.983125,1.981076,0.341167
14.577,-0.93905,1.965631,0.348883
14.597,-0.898414,1.948068,0.353478
14.617,-0.864199,1.923669,0.354292
14.637,-0.841425,1.893336,0.351443
14.657,-0.822298,1.860152,0.346412
14.677,-0.796958,1.822211,0.340821
14.697,-0.767294,1.780623,0.334394
14.717,-0.735644,1.736764,0.325884
14.737,-0.698861,1.6905,0.317909
14.757,-0.656312,1.641302,0.310586
14.777,-0.614142,1.591311,0.303106
14.797,-0.581022,1.543152,0.29429
14.817,-0.555116,1.49639,0.284477
14.837,-0.524594,1.449268,0.275168
14.857,-0.488667,1.40215,0.266774
14.877,-0.457632,1.357663,0.258202
14.897,-0.438288,1.316432,0.248091
14.917,-0.429261,1.27422,0.238833
14.937,-0.419297,1.231335,0.233054
14.957,-0.405428,1.188221,0.227949
14.977,-0.394897,1.145561,0.222267
14.997,-0.389422,1.103173,0.215927
15.017,-0.385537,1.061382,0.209355
15.037,-0.381608,1.021257,0.203148
15.057,-0.377659,0.983452,0.198117
15.077,-0.373327,0.947916,0.194297
15.097,-0.368669,0.914306,0.19163
15.117,-0.363393,0.882959,0.189683
15.137,-0.354862,0.854311,0.18819
15.157,-0.340412,0.828114,0.187521
15.177,-0.321148,0.802257,0.187627
15.197,-0.301609,0.775215,0.188045
15.217,-0.285766,0.749097,0.188664
15.237,-0.272647,0.726012,0.188723
15.257,-0.258626,0.703185,0.188998
15.277,-0.245319,0.678383,0.188524
15.297,-0.234245,0.650026,0.186927
15.317,-0.222914,0.61702,0.185027
15.337,-0.210012,0.578462,0.182204
15.357,-0.197116,0.533594,0.17835
15.377,-0.185926,0.483824,0.173594
15.397,-0.175511,0.430075,0.168646
15.417,-0.162705,0.372626,0.163064
15.437,-0.146489,0.310332,0.15797
15.457,-0.129594,0.244737,0.153188
15.477,-0.113532,0.177514,0.148369
15.497,-0.096498,0.107291,0.142878
15.517,-0.077228,0.031916,0.136875
15.537,-0.05876,-0.049959,0.130363
15.557,-0.045814,-0.137495,0.12285
15.577,-0.037715,-0.227595,0.113295
15.597,-0.028706,-0.318963,0.102257
15.617,-0.017237,-0.41089,0.090877
15.637,-0.004592,-0.496966,0.079181
15.657,0.010103,-0.57284,0.066943
15.677,0.030498,-0.639781,0.054648
15.697,0.059494,-0.702372,0.042779
15.717,0.092247,-0.761902,0.032018
15.737,0.121087,-0.815166,0.021545
15.757,0.144406,-0.859254,0.010028
15.777,0.166035,-0.897001,-0.002098
15.797,0.186152,-0.932929,-0.013581
15.817,0.201628,-0.964492,-0.024948
15.837,0.212559,-0.986703,-0.036699
15.857,0.223297,-0.999356,-0.048624
15.877,0.236889,-1.008765,-0.059145
15.897,0.250411,-1.017324,-0.06874
15.917,0.260533,-1.021444,-0.078358
15.937,0.268146,-1.01877,-0.088399
15.957,0.276882,-1.014407,-0.097595
15.977,0.286964,-1.012856,-0.105137
15.997,0.295941,-1.009704,-0.112291
16.017,0.303244,-1.000388,-0.119819
16.037,0.311408,-0.987077,-0.127013
16.057,0.319833,-0.976407,-0.133586
16.077,0.32552,-0.969431,-0.139475
16.097,0.328169,-0.961366,-0.145374
16.117,0.32855,-0.949416,-0.151222
16.137,0.328288,-0.93529,-0.156656
16.157,0.327811,-0.922522,-0.161286
16.177,0.326726,-0.910872,-0.166367
16.197,0.325092,-0.897177,-0.171836
16.217,0.322031,-0.88046,-0.177512
16.237,0.31815,-0.862317,-0.182803
16.257,0.315907,-0.844951,-0.187357
16.277,0.315621,-0.827759,-0.191378
16.297,0.314945,-0.808001,-0.194783
16.317,0.308224,-0.790827,-0.19941
16.337,0.293338,-0.778488,-0.203896
16.357,0.279598,-0.760839,-0.20547
16.377,0.266314,-0.739367,-0.206289
16.397,0.253868,-0.716251,-0.205773
16.417,0.242575,-0.693717,-0.204357
16.437,0.232101,-0.672385,-0.20248
16.457,0.222003,-0.651132,-0.200771
16.477,0.212566,-0.630057,-0.198797
16.497,0.203661,-0.610874,-0.19617
16.517,0.194485,-0.591488,-0.19413
16.537,0.184975,-0.571908,-0.192488
