accel_time_list,accel_x_list,accel_y_list,accel_z_list
0.410000,-14.513651,-10.548853,1.788469
0.430000,-13.377602,-10.201694,1.824382
0.450000,-12.476523,-9.741414,1.951335
0.470000,-11.846344,-9.275175,2.127869
0.490000,-11.334011,-8.861775,2.308584
0.510000,-10.824581,-8.519934,2.465612
0.530000,-10.301225,-8.269042,2.587561
0.550000,-9.782375,-8.112153,2.664103
0.570000,-9.289268,-8.021454,2.701943
0.590000,-8.850606,-7.958697,2.717084
0.610000,-8.495494,-7.902434,2.722707
0.630000,-8.252376,-7.832450,2.713659
0.650000,-8.164054,-7.753166,2.680739
0.670000,-8.258034,-7.700378,2.652519
0.690000,-8.534951,-7.702222,2.637592
0.710000,-8.954901,-7.745019,2.582358
0.730000,-9.445557,-7.761965,2.458540
0.750000,-9.894860,-7.712071,2.299596
0.770000,-10.240141,-7.601491,2.150614
0.790000,-10.548014,-7.475492,2.028461
0.810000,-10.868713,-7.324708,1.910950
0.830000,-11.184443,-7.122226,1.788758
0.850000,-11.465327,-6.873263,1.680211
0.870000,-11.684499,-6.611282,1.602927
0.890000,-11.821482,-6.375490,1.547736
0.910000,-11.891748,-6.190537,1.508735
0.930000,-11.872054,-6.041488,1.484719
0.950000,-11.772717,-5.907226,1.471669
0.970000,-11.633306,-5.782444,1.452845
0.990000,-11.457858,-5.660363,1.422101
1.010000,-11.241691,-5.539877,1.380383
1.030000,-10.994418,-5.421201,1.332173
1.050000,-10.731858,-5.305639,1.283265
1.070000,-10.465987,-5.190436,1.240023
1.090000,-10.193633,-5.071014,1.205397
1.110000,-9.918036,-4.948584,1.180565
1.130000,-9.640914,-4.822529,1.162624
1.150000,-9.366388,-4.698157,1.149395
1.170000,-9.097513,-4.578766,1.139661
1.190000,-8.843102,-4.468723,1.134746
1.210000,-8.611252,-4.370503,1.135676
1.230000,-8.412881,-4.284821,1.145137
1.250000,-8.253412,-4.207384,1.157267
1.270000,-8.132380,-4.127864,1.163638
1.290000,-8.090266,-4.045566,1.160357
1.310000,-8.146896,-3.967623,1.153356
1.330000,-8.279395,-3.901823,1.152821
1.350000,-8.475052,-3.867230,1.167309
1.370000,-8.696562,-3.875488,1.200228
1.390000,-8.937344,-3.920367,1.263291
1.410000,-9.172739,-3.965160,1.340946
1.430000,-9.336339,-3.984349,1.407143
1.450000,-9.442869,-3.992523,1.446854
1.470000,-9.571567,-4.011908,1.467237
1.490000,-9.764812,-4.040107,1.489063
1.510000,-10.011908,-4.066093,1.532118
1.530000,-10.262110,-4.075620,1.601947
1.550000,-10.441442,-4.079363,1.683397
1.570000,-10.514733,-4.099822,1.754585
1.590000,-10.495720,-4.133810,1.806867
1.610000,-10.406992,-4.175678,1.844164
1.630000,-10.268453,-4.222181,1.872995
1.650000,-10.101146,-4.275054,1.894546
1.670000,-9.925211,-4.335089,1.910019
1.690000,-9.754477,-4.399179,1.922764
1.710000,-9.597359,-4.461112,1.935816
1.730000,-9.452898,-4.514101,1.951743
1.750000,-9.323012,-4.554779,1.973483
1.770000,-9.213152,-4.579216,2.000193
1.790000,-9.133898,-4.594110,2.029145
1.810000,-9.085688,-4.606137,2.054786
1.830000,-9.063843,-4.613119,2.072363
1.850000,-9.063774,-4.627819,2.079432
1.870000,-9.084681,-4.660351,2.077081
1.890000,-9.119880,-4.700160,2.070165
1.910000,-9.164465,-4.733059,2.053432
1.930000,-9.251369,-4.756496,2.033534
1.950000,-9.411420,-4.783142,2.017761
1.970000,-9.614882,-4.816940,2.008708
1.990000,-9.797105,-4.848743,2.005792
2.010000,-9.923579,-4.866482,2.001278
2.030000,-10.002132,-4.866921,1.990044
2.050000,-10.041760,-4.855595,1.970963
2.070000,-10.053254,-4.833781,1.945965
2.090000,-10.067460,-4.801201,1.917195
2.110000,-10.099530,-4.764263,1.884712
2.130000,-10.141562,-4.728158,1.852596
2.150000,-10.175765,-4.693077,1.822234
2.170000,-10.199836,-4.658813,1.794836
2.190000,-10.205849,-4.630285,1.769921
2.210000,-10.181994,-4.607996,1.745108
2.230000,-10.129047,-4.585051,1.717314
2.250000,-10.051614,-4.554623,1.687277
2.270000,-9.948032,-4.516634,1.656833
2.290000,-9.820402,-4.473591,1.626282
2.310000,-9.680800,-4.430793,1.596093
2.330000,-9.539700,-4.390711,1.566780
2.350000,-9.401302,-4.354190,1.540225
2.370000,-9.268776,-4.318580,1.517183
2.390000,-9.143994,-4.282046,1.498172
2.432000,-9.038601,-4.244251,1.488226
2.452000,-8.943877,-4.208613,1.481697
2.472000,-8.858700,-4.176429,1.475944
2.492000,-8.787858,-4.148204,1.470610
2.512000,-8.740597,-4.121736,1.466118
2.532000,-8.735187,-4.096946,1.457854
2.552000,-8.765888,-4.077475,1.441193
2.572000,-8.818673,-4.063046,1.413719
2.592000,-8.904479,-4.050725,1.375755
2.612000,-9.031618,-4.032143,1.324051
2.632000,-9.238055,-4.003508,1.255341
2.652000,-9.514532,-3.980669,1.189156
2.672000,-9.757808,-3.975225,1.146960
2.692000,-9.936415,-3.994951,1.131488
2.712000,-10.056630,-4.031847,1.121721
2.732000,-10.129047,-4.069733,1.095039
2.752000,-10.190078,-4.100064,1.048921
2.772000,-10.269073,-4.132320,0.990391
2.792000,-10.369782,-4.168354,0.938090
2.812000,-10.449389,-4.203996,0.898855
2.832000,-10.487198,-4.234678,0.863838
2.852000,-10.484214,-4.256186,0.827586
2.872000,-10.443355,-4.268507,0.793051
2.892000,-10.383023,-4.275814,0.757992
2.912000,-10.318921,-4.285460,0.726221
2.932000,-10.214310,-4.298034,0.690259
2.952000,-10.084705,-4.317507,0.650348
2.972000,-9.944273,-4.343441,0.612643
2.992000,-9.793716,-4.374538,0.580407
3.012000,-9.634440,-4.409273,0.556931
3.032000,-9.485003,-4.447224,0.541366
3.052000,-9.358875,-4.491135,0.539333
3.072000,-9.252055,-4.540479,0.554097
3.092000,-9.157650,-4.587947,0.583004
3.112000,-9.071761,-4.623545,0.615444
3.132000,-8.990872,-4.654448,0.650012
3.152000,-8.912110,-4.700627,0.691848
3.172000,-8.854047,-4.770638,0.747289
3.192000,-8.834219,-4.853001,0.813542
3.212000,-8.842118,-4.940599,0.892955
3.232000,-8.876977,-5.027703,0.988040
3.252000,-8.956281,-5.105030,1.071151
3.272000,-9.103638,-5.182722,1.149246
3.292000,-9.265706,-5.275693,1.226534
3.312000,-9.357887,-5.376674,1.301816
3.332000,-9.388293,-5.470077,1.353260
3.352000,-9.400714,-5.555537,1.383047
3.372000,-9.400012,-5.626194,1.404069
3.392000,-9.386458,-5.664514,1.423505
3.412000,-9.353479,-5.663082,1.440595
3.432000,-9.290752,-5.636620,1.455483
3.452000,-9.199117,-5.596260,1.469807
3.472000,-9.085757,-5.546410,1.483248
3.492000,-8.951118,-5.488191,1.495990
3.512000,-8.798851,-5.424673,1.507107
3.532000,-8.634418,-5.358554,1.515345
3.552000,-8.463390,-5.288615,1.519997
3.572000,-8.287012,-5.213070,1.520049
3.592000,-8.112364,-5.130785,1.514761
3.612000,-7.957700,-5.043397,1.501397
3.632000,-7.838370,-4.952707,1.480560
3.652000,-7.752667,-4.861560,1.452116
3.672000,-7.697856,-4.773746,1.413655
3.692000,-7.682732,-4.690228,1.366778
3.712000,-7.705864,-4.614266,1.315138
3.732000,-7.759346,-4.549268,1.260722
3.752000,-7.850246,-4.496058,1.207337
3.772000,-7.988985,-4.455878,1.151878
3.792000,-8.164604,-4.432459,1.088785
3.812000,-8.381830,-4.427111,1.016921
3.832000,-8.677754,-4.434047,0.932668
3.852000,-9.083832,-4.461560,0.844111
3.872000,-9.560712,-4.524424,0.773520
3.892000,-10.036896,-4.619603,0.733259
3.912000,-10.456514,-4.715435,0.712219
3.932000,-10.757163,-4.784504,0.696682
3.952000,-10.920230,-4.831444,0.687847
3.972000,-10.961058,-4.870595,0.693642
3.992000,-10.914955,-4.915195,0.712974
4.012000,-10.852504,-4.965921,0.742143
4.032000,-10.802542,-5.007824,0.776493
4.052000,-10.721361,-5.038742,0.803380
4.072000,-10.577360,-5.073046,0.815176
4.092000,-10.382286,-5.120174,0.817269
4.112000,-10.153886,-5.171722,0.816561
4.132000,-9.923241,-5.212899,0.819276
4.152000,-9.687498,-5.237645,0.826882
4.172000,-9.443142,-5.249238,0.841483
4.192000,-9.205631,-5.254476,0.858105
4.212000,-8.976568,-5.260140,0.875536
4.232000,-8.760051,-5.268174,0.895980
4.252000,-8.589228,-5.271132,0.922612
4.272000,-8.473894,-5.268181,0.950250
4.292000,-8.382270,-5.264999,0.971859
4.312000,-8.317086,-5.267409,0.988135
4.332000,-8.295994,-5.274361,1.002616
4.352000,-8.327778,-5.283341,1.014481
4.372000,-8.404415,-5.296176,1.019908
4.392000,-8.527338,-5.318119,1.022134
4.412000,-8.721934,-5.353192,1.023612
4.444000,-9.046181,-5.394584,1.027396
4.464000,-9.355146,-5.411071,1.023484
4.484000,-9.631006,-5.405914,1.012399
4.504000,-9.901958,-5.386758,0.996630
4.524000,-10.158451,-5.357563,0.980706
4.544000,-10.370366,-5.316749,0.966385
4.564000,-10.533025,-5.266789,0.955238
4.584000,-10.646826,-5.210001,0.947822
4.604000,-10.706287,-5.148370,0.944248
4.624000,-10.710242,-5.087252,0.943296
4.644000,-10.661528,-5.028506,0.943616
4.664000,-10.558792,-4.969478,0.943647
4.684000,-10.416886,-4.906130,0.944333
4.704000,-10.238220,-4.836200,0.945237
4.724000,-10.021075,-4.759104,0.946621
4.744000,-9.770868,-4.676540,0.948731
4.764000,-9.498631,-4.590574,0.950950
4.784000,-9.216594,-4.504571,0.953047
4.804000,-8.938396,-4.421352,0.955220
4.824000,-8.685999,-4.345119,0.957276
4.844000,-8.471608,-4.280929,0.958219
4.864000,-8.291057,-4.224925,0.958860
4.884000,-8.142929,-4.174035,0.958540
4.904000,-8.046016,-4.129813,0.956993
4.924000,-8.013532,-4.096755,0.955989
4.944000,-8.055001,-4.072540,0.958571
4.964000,-8.161601,-4.056142,0.961824
4.984000,-8.300463,-4.048419,0.965093
5.004000,-8.478196,-4.045417,0.968980
5.024000,-8.756437,-4.047064,0.972645
5.044000,-9.135281,-4.058421,0.976124
5.064000,-9.550564,-4.086226,0.987473
5.084000,-9.938612,-4.133510,1.016674
5.104000,-10.230247,-4.187075,1.059346
5.124000,-10.358044,-4.229047,1.105282
5.144000,-10.321014,-4.254178,1.149008
5.164000,-10.173925,-4.263250,1.184790
5.184000,-10.032325,-4.263465,1.214778
5.204000,-9.979241,-4.260079,1.243672
5.224000,-9.989264,-4.253154,1.271675
5.244000,-9.996281,-4.243522,1.298810
5.264000,-9.982955,-4.239066,1.323899
5.284000,-9.940758,-4.245811,1.345671
5.304000,-9.857640,-4.263561,1.364604
5.324000,-9.736481,-4.288013,1.382662
5.344000,-9.592031,-4.314859,1.400569
5.364000,-9.440900,-4.343506,1.415785
5.384000,-9.290359,-4.375616,1.426114
5.404000,-9.148245,-4.411103,1.431231
5.424000,-9.024935,-4.446947,1.432988
5.444000,-8.928840,-4.478423,1.434060
5.464000,-8.861234,-4.504629,1.435200
5.484000,-8.822819,-4.525598,1.435061
5.504000,-8.818462,-4.541197,1.432026
5.524000,-8.845347,-4.550303,1.427140
5.544000,-8.894735,-4.552546,1.422085
5.564000,-8.963707,-4.549791,1.421636
5.584000,-9.040167,-4.545513,1.422384
5.604000,-9.115223,-4.545083,1.419159
5.624000,-9.222166,-4.553253,1.414786
5.644000,-9.386006,-4.579195,1.414126
5.664000,-9.564889,-4.618352,1.410041
5.684000,-9.710545,-4.660699,1.401243
5.704000,-9.830900,-4.699362,1.387977
5.724000,-9.937833,-4.727233,1.375035
5.744000,-10.010039,-4.738438,1.362640
5.764000,-10.042675,-4.735524,1.349839
5.784000,-10.042954,-4.719929,1.337136
5.804000,-10.022408,-4.693712,1.325624
5.824000,-9.984179,-4.661752,1.316505
5.844000,-9.928174,-4.627286,1.309310
5.864000,-9.851255,-4.593112,1.305234
5.884000,-9.754231,-4.560210,1.301568
5.904000,-9.649561,-4.528767,1.298602
5.924000,-9.536890,-4.495976,1.296047
5.944000,-9.411722,-4.460890,1.291854
5.964000,-9.276404,-4.423437,1.286300
5.984000,-9.132531,-4.385674,1.279782
6.004000,-8.987238,-4.349511,1.272420
6.024000,-8.848349,-4.317778,1.264724
6.044000,-8.720884,-4.290907,1.257688
6.064000,-8.613604,-4.265491,1.251202
6.084000,-8.528644,-4.238986,1.245852
6.104000,-8.457512,-4.212931,1.240693
6.124000,-8.407725,-4.188359,1.234673
6.144000,-8.390776,-4.167703,1.230606
6.164000,-8.402741,-4.149682,1.229467
6.184000,-8.433664,-4.134454,1.231259
6.204000,-8.481879,-4.122567,1.235451
6.224000,-8.566437,-4.112240,1.238413
6.244000,-8.721153,-4.106647,1.240024
6.264000,-8.934019,-4.107226,1.241581
6.284000,-9.172681,-4.117062,1.247590
6.304000,-9.392695,-4.137510,1.265945
6.324000,-9.553437,-4.162962,1.297229
6.344000,-9.636564,-4.182227,1.335202
6.364000,-9.636830,-4.190231,1.372758
6.384000,-9.587371,-4.189321,1.404579
6.404000,-9.541032,-4.183094,1.430764
6.424000,-9.542164,-4.178134,1.455274
