accel_time_list,accel_x_list,accel_y_list,accel_z_list
0.48,-14.9901,-5.6982,3.29921
0.5,-14.69441,-6.066907,3.002329
0.52,-14.41356,-6.319576,2.696227
0.54,-14.07443,-6.396006,2.453666
0.56,-13.55492,-6.329515,2.252285
0.58,-13.05833,-6.183157,2.069654
0.6,-12.69729,-5.997824,1.916427
0.62,-12.38916,-5.789031,1.7351
0.64,-12.00066,-5.523982,1.519543
0.66,-11.5703,-5.223804,1.325695
0.68,-11.21597,-4.900653,1.183876
0.7,-10.9494,-4.609438,1.081981
0.72,-10.68763,-4.384932,1.005395
0.74,-10.46035,-4.180572,0.966116
0.76,-10.30534,-3.96211,1.005956
0.78,-10.21363,-3.761527,1.117558
0.8,-10.1409,-3.586765,1.235626
0.82,-10.05484,-3.40574,1.34069
0.84,-9.997582,-3.26137,1.46067
0.86,-9.969443,-3.157734,1.592992
0.88,-9.913612,-3.06491,1.721443
0.9,-9.826324,-2.973768,1.850169
0.92,-9.752802,-2.886378,1.980095
0.94,-9.691568,-2.808228,2.111931
0.96,-9.640377,-2.765754,2.247645
0.98,-9.599329,-2.757563,2.384842
1,-9.556425,-2.750131,2.523269
1.02,-9.503474,-2.745953,2.656682
1.04,-9.432367,-2.745237,2.775862
1.06,-9.333266,-2.761249,2.881962
1.08,-9.214982,-2.80827,2.977
1.1,-9.079971,-2.857504,3.045062
1.12,-8.935658,-2.898381,3.092268
1.14,-8.808828,-2.952155,3.12837
1.16,-8.709867,-3.028549,3.160837
1.18,-8.633519,-3.121879,3.186581
1.2,-8.576185,-3.214399,3.199832
1.22,-8.533233,-3.291001,3.199267
1.24,-8.509719,-3.359896,3.191676
1.26,-8.509261,-3.431099,3.182631
1.28,-8.529262,-3.507654,3.17337
1.3,-8.563337,-3.583659,3.160462
1.32,-8.61166,-3.64609,3.148678
1.34,-8.676638,-3.691888,3.129001
1.36,-8.767989,-3.731914,3.106179
1.38,-8.900102,-3.776207,3.095536
1.4,-9.056483,-3.812942,3.093578
1.42,-9.231236,-3.831779,3.087379
1.44,-9.421902,-3.834462,3.074046
1.46,-9.623021,-3.829216,3.054934
1.48,-9.809846,-3.818443,3.035063
1.5,-9.963087,-3.799513,3.015254
1.52,-10.07699,-3.771517,2.996037
1.54,-10.14307,-3.736313,2.976789
1.56,-10.15961,-3.695498,2.956182
1.58,-10.1332,-3.653898,2.933589
1.6,-10.07219,-3.614912,2.906399
1.62,-9.98737,-3.581328,2.874988
1.64,-9.885412,-3.554835,2.84051
1.66,-9.770868,-3.534551,2.802804
1.68,-9.648106,-3.515912,2.764735
1.7,-9.525556,-3.494396,2.728625
1.72,-9.400475,-3.467291,2.69594
1.74,-9.270199,-3.436647,2.66501
1.76,-9.142899,-3.404564,2.641032
1.78,-9.027695,-3.373274,2.6293
1.8,-8.922174,-3.340947,2.626817
1.82,-8.817229,-3.307002,2.62787
1.84,-8.721773,-3.273242,2.633133
1.86,-8.642653,-3.239814,2.648253
1.88,-8.58153,-3.206441,2.671661
1.9,-8.533732,-3.174013,2.695994
1.92,-8.505666,-3.143605,2.725773
1.94,-8.514374,-3.113611,2.760129
1.96,-8.578264,-3.086702,2.797303
1.98,-8.68318,-3.063468,2.842668
2,-8.789818,-3.044967,2.907167
2.02,-8.891543,-3.027929,2.982689
2.04,-8.989745,-3.009722,3.059831
2.06,-9.078069,-2.994934,3.136436
2.08,-9.155637,-2.99257,3.217141
2.1,-9.221651,-3.001537,3.297095
2.12,-9.277892,-3.019069,3.36511
2.14,-9.327455,-3.042005,3.420997
2.16,-9.367466,-3.068568,3.473846
2.18,-9.38417,-3.100492,3.52568
2.2,-9.37131,-3.141262,3.569598
2.22,-9.330197,-3.189943,3.601238
2.24,-9.265237,-3.243799,3.621573
2.26,-9.184894,-3.302515,3.63414
2.28,-9.098223,-3.366823,3.641604
2.3,-9.009835,-3.434583,3.645523
2.32,-8.922819,-3.501238,3.645339
2.34,-8.843034,-3.561494,3.64219
2.36,-8.773493,-3.610514,3.638581
2.38,-8.71771,-3.651306,3.637161
2.4,-8.678181,-3.687012,3.635843
2.42,-8.654604,-3.718722,3.631266
2.44,-8.644695,-3.747091,3.622061
2.46,-8.645749,-3.776125,3.608294
2.9,-8.584652,-3.735304,3.579853
2.92,-8.52195,-3.69913,3.550804
2.94,-8.464049,-3.667987,3.522423
2.96,-8.418269,-3.639308,3.498914
2.98,-8.378688,-3.608689,3.478477
3,-8.342052,-3.577811,3.457501
3.02,-8.309847,-3.548954,3.435951
3.04,-8.289862,-3.522617,3.420604
3.06,-8.276153,-3.499616,3.411018
3.08,-8.270588,-3.479827,3.403772
3.1,-8.272839,-3.465849,3.40039
3.12,-8.288553,-3.459068,3.4067
3.14,-8.315911,-3.455823,3.421798
3.16,-8.370962,-3.449586,3.440166
3.18,-8.459178,-3.443826,3.463101
3.2,-8.553076,-3.441448,3.495248
3.22,-8.627288,-3.442376,3.537832
3.24,-8.680129,-3.441625,3.586879
3.26,-8.720188,-3.434629,3.638111
3.28,-8.762413,-3.421287,3.691377
3.3,-8.809397,-3.407561,3.746684
3.32,-8.848173,-3.400223,3.80003
3.34,-8.871813,-3.402005,3.847619
3.36,-8.885249,-3.409135,3.893194
3.38,-8.887976,-3.420362,3.937958
3.4,-8.873773,-3.436065,3.979175
3.42,-8.839707,-3.457222,4.013329
3.44,-8.790017,-3.483368,4.037467
3.46,-8.7314,-3.514019,4.051819
3.48,-8.668186,-3.547275,4.060154
3.5,-8.602569,-3.580866,4.06463
3.52,-8.543854,-3.61153,4.064772
3.54,-8.498994,-3.639601,4.060419
3.56,-8.46699,-3.665633,4.052243
3.58,-8.453881,-3.687742,4.03611
3.6,-8.46045,-3.705314,4.006058
3.62,-8.477356,-3.721814,3.964056
3.64,-8.493723,-3.75057,3.911115
3.66,-8.508108,-3.78769,3.851548
3.68,-8.531221,-3.818485,3.789137
3.7,-8.56437,-3.835692,3.729806
3.72,-8.604549,-3.843991,3.671126
3.74,-8.654117,-3.865364,3.591495
3.76,-8.720335,-3.900657,3.494021
3.78,-8.790151,-3.916,3.402996
3.8,-8.848073,-3.911277,3.324501
3.82,-8.901737,-3.912773,3.250392
3.84,-8.959682,-3.938837,3.169473
3.86,-9.00688,-3.990824,3.082605
3.88,-9.031075,-4.052483,2.992472
3.9,-9.046516,-4.119628,2.908468
3.92,-9.064885,-4.189843,2.833439
3.94,-9.082389,-4.250959,2.762902
3.96,-9.082214,-4.297795,2.697235
3.98,-9.058167,-4.334489,2.643647
4,-9.019879,-4.365559,2.605096
4.02,-8.978101,-4.391448,2.581885
4.04,-8.929365,-4.410797,2.565772
4.06,-8.866731,-4.42225,2.550698
4.08,-8.79164,-4.429917,2.535502
4.1,-8.707822,-4.435414,2.517746
4.12,-8.621295,-4.435432,2.497646
4.14,-8.532581,-4.427993,2.477138
4.16,-8.43846,-4.415661,2.459781
4.18,-8.344851,-4.403129,2.446789
4.2,-8.256086,-4.390954,2.435991
4.22,-8.175889,-4.376344,2.426337
4.24,-8.106934,-4.356708,2.418851
4.26,-8.050979,-4.332266,2.412847
4.28,-8.002879,-4.306714,2.409058
4.3,-7.965301,-4.280126,2.412081
4.32,-7.945113,-4.250947,2.419392
4.34,-7.942493,-4.219079,2.427404
4.36,-7.957002,-4.18699,2.434039
4.38,-7.986044,-4.159205,2.443129
4.4,-8.030911,-4.136637,2.455181
4.42,-8.095409,-4.117863,2.469323
4.44,-8.178057,-4.100144,2.482442
4.46,-8.289389,-4.085176,2.496921
4.48,-8.432281,-4.078825,2.51867
4.5,-8.573185,-4.081016,2.548438
4.52,-8.68962,-4.086869,2.584063
4.54,-8.789022,-4.094311,2.624658
4.56,-8.870505,-4.100161,2.664449
4.58,-8.926418,-4.101925,2.696718
4.6,-8.967075,-4.102561,2.723562
4.62,-9.014682,-4.103108,2.752849
4.64,-9.064283,-4.105697,2.787539
4.66,-9.095072,-4.110075,2.827634
4.68,-9.103111,-4.115329,2.866776
4.7,-9.080807,-4.124128,2.899171
4.72,-9.03083,-4.13568,2.92427
4.74,-8.961277,-4.149537,2.943173
4.76,-8.881582,-4.166269,2.95931
4.78,-8.800023,-4.187351,2.971773
4.8,-8.719635,-4.209948,2.980963
4.82,-8.645643,-4.231577,2.988522
4.84,-8.584714,-4.250557,2.997365
4.86,-8.539577,-4.265072,3.007852
4.88,-8.509181,-4.27631,3.017178
5.11,-8.615516,-4.280246,3.015867
5.13,-8.750857,-4.278519,3.017163
5.15,-8.891804,-4.27014,3.013405
5.17,-9.012591,-4.259877,3.010436
5.19,-9.115463,-4.248116,3.009528
5.21,-9.2068,-4.236432,3.006776
5.23,-9.268248,-4.224477,3.000337
5.25,-9.291151,-4.213199,2.990767
5.27,-9.278758,-4.202494,2.981526
5.29,-9.238293,-4.190541,2.970245
5.31,-9.176543,-4.176107,2.954516
5.33,-9.09759,-4.159796,2.933283
5.35,-9.006351,-4.142793,2.90777
5.37,-8.905312,-4.125125,2.879406
5.39,-8.796977,-4.10595,2.850755
5.41,-8.689948,-4.08532,2.824196
5.43,-8.590838,-4.063692,2.801371
5.45,-8.497476,-4.041778,2.782352
5.47,-8.414457,-4.020276,2.768205
5.49,-8.348105,-3.997478,2.758414
5.51,-8.296914,-3.974262,2.749724
5.53,-8.256664,-3.951267,2.740608
5.55,-8.231449,-3.928341,2.730071
5.57,-8.223842,-3.908667,2.717629
5.59,-8.2331,-3.893479,2.704509
5.61,-8.261374,-3.881509,2.692622
5.63,-8.300197,-3.872399,2.682829
5.65,-8.351449,-3.867672,2.67539
5.67,-8.413914,-3.867563,2.673112
5.69,-8.486148,-3.871469,2.676154
5.71,-8.577508,-3.876651,2.678893
5.73,-8.698834,-3.883412,2.68317
5.75,-8.809176,-3.891838,2.689734
5.77,-8.875274,-3.899652,2.697515
5.79,-8.915729,-3.905841,2.705483
5.81,-8.95773,-3.910499,2.717153
5.83,-9.00985,-3.916424,2.73331
5.85,-9.063328,-3.929476,2.752329
5.87,-9.110485,-3.950323,2.77342
5.89,-9.132233,-3.97914,2.793078
5.91,-9.127602,-4.010104,2.81169
5.93,-9.096789,-4.035748,2.830534
5.95,-9.049773,-4.055157,2.852471
5.97,-8.998307,-4.071763,2.876085
5.99,-8.944626,-4.086841,2.897301
6.01,-8.890281,-4.099313,2.915604
6.03,-8.838955,-4.111438,2.932374
6.05,-8.790572,-4.123707,2.949045
6.07,-8.748824,-4.135664,2.964214
6.09,-8.715713,-4.146945,2.977056
6.11,-8.68897,-4.159074,2.986413
6.13,-8.662172,-4.172863,2.991517
6.15,-8.638544,-4.187548,2.99438
6.17,-8.623999,-4.2018,2.997888
6.19,-8.620862,-4.214865,3.000058
6.21,-8.627928,-4.226898,2.999481
6.23,-8.643312,-4.236436,2.998289
6.25,-8.668541,-4.244524,2.99828
6.27,-8.707882,-4.253535,2.998739
6.29,-8.766823,-4.263958,2.999418
6.31,-8.850746,-4.279872,3.003337
6.33,-8.940474,-4.300244,3.007063
6.35,-9.01766,-4.317682,3.00434
6.37,-9.08892,-4.32448,2.994609
6.39,-9.159556,-4.32214,2.982523
6.41,-9.228811,-4.313715,2.971999
6.43,-9.289808,-4.300433,2.96397
6.45,-9.328548,-4.286015,2.956537
6.47,-9.341721,-4.273511,2.947992
6.49,-9.332796,-4.263296,2.936955
6.51,-9.306224,-4.253759,2.923361
6.53,-9.265686,-4.245441,2.906959
6.55,-9.211406,-4.236977,2.887696
6.57,-9.144872,-4.227654,2.866462
6.59,-9.069389,-4.216943,2.844352
6.61,-8.990408,-4.204146,2.823063
6.63,-8.91151,-4.19026,2.802763
6.65,-8.835087,-4.175456,2.783767
6.67,-8.764512,-4.159389,2.766959
6.69,-8.699277,-4.142422,2.751825
6.71,-8.638358,-4.124746,2.737225
6.73,-8.581301,-4.105553,2.723652
6.75,-8.534789,-4.084881,2.713291
6.77,-8.500399,-4.062589,2.705606
6.79,-8.467868,-4.040106,2.698225
6.81,-8.444317,-4.018847,2.691396
6.83,-8.431451,-4.000088,2.685111
6.85,-8.433365,-3.984345,2.680758
6.87,-8.457138,-3.971015,2.678323
6.89,-8.499525,-3.959144,2.675278
6.91,-8.564438,-3.951331,2.673386
6.93,-8.637241,-3.949965,2.675422
6.95,-8.705292,-3.954224,2.68349
6.97,-8.769897,-3.961804,2.697355
6.99,-8.827783,-3.969567,2.713415
7.01,-8.878859,-3.975481,2.727887
7.03,-8.929867,-3.980831,2.741155
7.05,-8.9885,-3.989234,2.755257
7.07,-9.058664,-3.999774,2.771843
7.09,-9.134839,-4.013327,2.7927
7.168,-9.110332,-4.037728,2.810766
7.188,-9.064165,-4.062702,2.827624
7.208,-9.006469,-4.087856,2.84557
7.228,-8.942526,-4.112113,2.863205
7.248,-8.878472,-4.134614,2.878823
7.268,-8.821691,-4.153419,2.894326
7.288,-8.776258,-4.167694,2.911418
7.308,-8.73955,-4.178274,2.929722
7.328,-8.714645,-4.187364,2.94804
7.348,-8.702731,-4.195245,2.964131
7.368,-8.700638,-4.202375,2.978166
7.388,-8.708954,-4.208506,2.991587
7.408,-8.719901,-4.215902,3.002659
7.428,-8.734545,-4.224454,3.010569
7.448,-8.75811,-4.231243,3.01764
7.468,-8.79808,-4.234941,3.025375
7.488,-8.863882,-4.242378,3.032982
7.508,-8.943165,-4.254517,3.04074
7.528,-9.01184,-4.267118,3.0458
7.548,-9.068229,-4.276251,3.044285
7.568,-9.124527,-4.279525,3.037474
7.588,-9.189004,-4.277723,3.03056
7.608,-9.260064,-4.273261,3.025102
7.628,-9.324213,-4.266934,3.020088
7.648,-9.36521,-4.258695,3.012187
7.668,-9.382123,-4.248621,3.000459
7.688,-9.379531,-4.237073,2.9864
7.708,-9.360448,-4.223547,2.971456
7.728,-9.325756,-4.207714,2.955434
7.748,-9.275229,-4.19052,2.938189
7.768,-9.211275,-4.173677,2.919005
7.788,-9.137092,-4.157818,2.89828
7.808,-9.0577,-4.143774,2.876799
7.828,-8.981838,-4.129704,2.8573
7.848,-8.911522,-4.112905,2.839476
7.868,-8.840256,-4.092249,2.822888
7.888,-8.76891,-4.06813,2.80814
7.908,-8.698683,-4.042235,2.796226
7.928,-8.637921,-4.015926,2.786168
7.948,-8.579468,-3.989748,2.776478
7.968,-8.522484,-3.964852,2.765875
7.988,-8.477171,-3.942323,2.754945
8.008,-8.456792,-3.922056,2.743746
8.028,-8.455811,-3.904398,2.731478
8.048,-8.465467,-3.89081,2.71908
8.068,-8.485885,-3.882159,2.708707
8.088,-8.530559,-3.876499,2.702141
8.108,-8.617246,-3.875732,2.702261
8.128,-8.71551,-3.882466,2.709312
8.148,-8.793906,-3.8936,2.722072
8.168,-8.852981,-3.905406,2.736556
8.188,-8.90926,-3.914468,2.750098
8.208,-8.983741,-3.918497,2.764234
8.228,-9.081882,-3.922275,2.785069
8.248,-9.19544,-3.931791,2.816013
8.268,-9.304496,-3.94903,2.855116
8.288,-9.38039,-3.968946,2.89606
8.308,-9.412578,-3.984142,2.935595
8.328,-9.405268,-3.994169,2.973309
8.348,-9.367273,-4.003426,3.008663
8.368,-9.309079,-4.013187,3.040933
8.388,-9.236741,-4.024739,3.070058
8.408,-9.158835,-4.037118,3.097467
8.428,-9.081855,-4.049373,3.124261
8.448,-9.010318,-4.061055,3.151064
8.468,-8.954608,-4.072586,3.178163
8.488,-8.918667,-4.083603,3.205258
8.508,-8.901534,-4.098816,3.232107
8.528,-8.900876,-4.116256,3.256882
8.548,-8.913081,-4.132808,3.278865
8.568,-8.93459,-4.148038,3.296162
8.588,-8.969722,-4.184635,3.310187
8.608,-9.027859,-4.235918,3.321169
8.628,-9.104689,-4.273418,3.332802
8.648,-9.195267,-4.293384,3.344378
8.668,-9.307685,-4.329865,3.351496
8.688,-9.434205,-4.371692,3.357112
8.708,-9.560263,-4.395534,3.360746
8.728,-9.661175,-4.401909,3.363488
8.748,-9.730664,-4.413857,3.372045
8.768,-9.798376,-4.45207,3.387126
8.788,-9.845903,-4.474462,3.396407
8.808,-9.849241,-4.466988,3.401342
8.828,-9.818356,-4.455254,3.411791
8.848,-9.779621,-4.455258,3.427065
8.868,-9.719068,-4.449876,3.439352
8.888,-9.618341,-4.425832,3.448548
8.908,-9.484352,-4.391296,3.468086
8.928,-9.339847,-4.359922,3.498415
8.948,-9.182886,-4.329728,3.529648
8.968,-8.997618,-4.292663,3.557194
8.988,-8.783535,-4.251171,3.590528
9.008,-8.558713,-4.224061,3.62864
9.028,-8.326262,-4.209462,3.665797
9.048,-8.078621,-4.189495,3.703843
9.068,-7.82454,-4.161097,3.750976
9.088,-7.576779,-4.137234,3.80859
9.108,-7.337931,-4.116465,3.871409
9.128,-7.072478,-4.086897,3.933446
9.148,-6.78181,-4.056557,4.00225
