accel_time_list,accel_x_list,accel_y_list,accel_z_list
0.315000,0.936133,-5.477933,8.207323
0.335000,1.225831,-5.480328,8.173804
0.355000,1.494244,-5.420471,8.194563
0.375000,1.728559,-5.288009,8.219920
0.395000,1.954609,-5.122066,8.170882
0.415000,2.189867,-4.960840,8.113722
0.435000,2.402487,-4.836448,8.078321
0.455000,2.604680,-4.749377,8.056280
0.475000,2.812408,-4.696962,8.045041
0.495000,3.032260,-4.618398,8.067194
0.515000,3.233195,-4.512182,8.121358
0.535000,3.408345,-4.411614,8.209971
0.555000,3.571495,-4.327715,8.298539
0.575000,3.719527,-4.267939,8.360173
0.595000,3.848690,-4.223449,8.406968
0.615000,3.959408,-4.177125,8.451869
0.635000,4.059453,-4.115866,8.494044
0.655000,4.140251,-4.055327,8.535628
0.675000,4.214661,-3.995754,8.545860
0.695000,4.300016,-3.933707,8.525222
0.715000,4.384317,-3.868433,8.499717
0.735000,4.454005,-3.791827,8.489100
0.755000,4.515906,-3.703103,8.477786
0.775000,4.582759,-3.610446,8.450656
0.795000,4.652959,-3.520217,8.417629
0.815000,4.723802,-3.431928,8.384307
0.835000,4.796923,-3.345144,8.357841
0.855000,4.866944,-3.258859,8.341720
0.875000,4.934994,-3.162110,8.327980
0.895000,5.006775,-3.058216,8.314664
0.915000,5.081603,-2.966483,8.295544
0.935000,5.154096,-2.892548,8.266901
0.955000,5.222484,-2.826650,8.240622
0.975000,5.285228,-2.758224,8.218610
0.995000,5.345319,-2.684654,8.187660
1.015000,5.405072,-2.617864,8.150044
1.035000,5.462647,-2.562178,8.114089
1.055000,5.513118,-2.504541,8.085245
1.075000,5.556676,-2.437721,8.063107
1.095000,5.602879,-2.360439,8.044662
1.115000,5.651517,-2.281920,8.022578
1.135000,5.702097,-2.212866,7.996280
1.155000,5.747459,-2.155117,7.977074
1.175000,5.786823,-2.096341,7.964373
1.195000,5.823574,-2.030315,7.953010
1.215000,5.860428,-1.966033,7.934960
1.235000,5.896823,-1.913096,7.911843
1.255000,5.929413,-1.871059,7.890695
1.275000,5.957367,-1.829483,7.871420
1.295000,5.984553,-1.784037,7.848925
1.315000,6.012557,-1.739383,7.817454
1.335000,6.037935,-1.698366,7.774892
1.355000,6.056317,-1.656010,7.722117
1.375000,6.068482,-1.606718,7.663823
1.395000,6.075309,-1.554574,7.597103
1.415000,6.075399,-1.506235,7.514583
1.435000,6.066460,-1.463519,7.413196
1.455000,6.047463,-1.423988,7.298433
1.475000,6.017957,-1.378915,7.181775
1.495000,5.971623,-1.329290,7.059982
1.515000,5.909530,-1.288783,6.914920
1.535000,5.837256,-1.269050,6.734128
1.555000,5.760114,-1.267118,6.536665
1.575000,5.679183,-1.260245,6.337521
1.595000,5.589749,-1.239570,6.127699
1.615000,5.495513,-1.217334,5.902872
1.635000,5.419881,-1.212819,5.671320
1.655000,5.373291,-1.214364,5.449121
1.675000,5.312235,-1.194594,5.226048
1.695000,5.202544,-1.166266,4.941341
1.715000,5.060341,-1.147175,4.570084
1.735000,4.960623,-1.101770,4.147924
1.755000,4.922231,-1.037645,3.775608
1.775000,4.610560,-1.233343,3.910604
1.795000,3.540020,-1.667989,4.269188
1.815000,1.340781,-1.803796,4.103512
1.835000,-7.295491,-3.653688,7.914079
1.855000,-28.157352,-1.130455,-3.119524
1.875000,17.648350,6.578478,-23.373217
1.895000,42.419754,8.820110,5.200266
1.915000,-23.581299,-9.549952,2.308545
1.935000,-11.066494,-5.573571,1.381947
1.955000,11.267076,-3.470868,3.115085
1.975000,-5.941204,-4.813861,3.964919
1.995000,-3.446011,-4.908409,5.028495
2.015000,-2.499757,-4.949746,5.755538
2.035000,-1.702081,-5.390145,6.234434
2.055000,-1.311859,-4.879972,6.719104
2.075000,-0.952554,-4.296597,7.280323
2.095000,-0.951866,-4.922596,7.316842
2.115000,-0.678660,-5.890082,7.054694
2.135000,-0.580147,-6.184763,7.117400
2.155000,-0.737022,-6.080801,7.264126
2.175000,-0.987932,-5.898226,7.364588
2.195000,-0.952126,-6.105944,7.405251
2.215000,-0.800994,-6.060165,7.375340
2.235000,-0.856248,-6.132269,7.410904
2.255000,-0.882119,-6.219336,7.490347
2.275000,-1.040439,-6.145327,7.575239
2.295000,-1.260863,-6.135486,7.559079
2.377000,-1.194758,-6.161968,7.573831
2.397000,-1.115256,-6.246156,7.566004
2.417000,-1.058159,-6.332476,7.560378
2.437000,-1.008483,-6.379247,7.549021
2.457000,-1.014070,-6.433721,7.545750
2.477000,-1.022007,-6.453715,7.563086
2.497000,-1.033697,-6.425750,7.591871
2.517000,-1.049310,-6.424148,7.606799
2.537000,-1.041543,-6.468450,7.594352
2.557000,-1.024255,-6.549056,7.559795
2.577000,-0.994602,-6.632050,7.520257
2.597000,-0.979970,-6.709789,7.492354
2.617000,-0.978752,-6.785639,7.465924
2.637000,-0.981502,-6.852088,7.437677
2.657000,-0.994097,-6.885890,7.424347
2.677000,-1.001582,-6.891257,7.421044
2.697000,-0.995485,-6.870811,7.438595
2.717000,-0.989617,-6.855873,7.453869
2.737000,-0.977120,-6.845883,7.471860
2.757000,-0.968774,-6.815262,7.499869
2.777000,-0.972785,-6.770464,7.534383
2.797000,-0.978852,-6.746674,7.563315
2.817000,-0.976033,-6.749093,7.581680
2.837000,-0.970215,-6.749311,7.600727
2.857000,-0.964953,-6.731927,7.619978
2.877000,-0.958831,-6.717441,7.636386
2.897000,-0.955264,-6.708558,7.654439
2.917000,-0.947819,-6.695682,7.668969
2.937000,-0.946135,-6.680525,7.685922
2.957000,-0.947605,-6.678038,7.698773
2.977000,-0.945725,-6.658325,7.719127
2.997000,-0.943819,-6.618881,7.748868
3.017000,-0.939760,-6.596812,7.772601
3.037000,-0.930441,-6.594014,7.787752
3.057000,-0.931332,-6.583085,7.807912
3.077000,-0.927815,-6.551455,7.828478
3.097000,-0.929021,-6.534536,7.846873
3.117000,-0.933708,-6.552895,7.850468
3.137000,-0.928058,-6.580955,7.833594
3.157000,-0.914301,-6.615607,7.814736
3.177000,-0.905911,-6.648780,7.797175
3.197000,-0.911075,-6.679563,7.789565
3.217000,-0.906937,-6.682532,7.783578
3.237000,-0.905449,-6.698729,7.781309
3.257000,-0.897268,-6.735788,7.763576
3.277000,-0.890066,-6.772092,7.743830
3.297000,-0.879764,-6.800140,7.722621
3.317000,-0.867469,-6.797742,7.722732
3.337000,-0.868527,-6.788418,7.736114
3.357000,-0.863634,-6.773761,7.741946
3.377000,-0.861167,-6.770337,7.746980
3.397000,-0.857991,-6.776819,7.749164
3.417000,-0.854446,-6.783578,7.747712
3.437000,-0.849208,-6.786676,7.748618
3.457000,-0.843929,-6.790109,7.749088
3.477000,-0.838238,-6.796564,7.748466
3.497000,-0.834729,-6.805347,7.747039
3.517000,-0.830919,-6.810976,7.746431
3.537000,-0.826279,-6.815965,7.745842
3.557000,-0.822793,-6.819353,7.748080
3.577000,-0.819787,-6.819788,7.749846
3.597000,-0.816792,-6.820489,7.750577
3.617000,-0.812850,-6.822583,7.751359
3.637000,-0.809076,-6.827206,7.751374
3.657000,-0.806168,-6.831810,7.751703
3.677000,-0.803697,-6.831603,7.754119
3.697000,-0.800897,-6.830920,7.755793
3.717000,-0.798102,-6.833880,7.757387
3.737000,-0.795281,-6.835385,7.759270
3.757000,-0.792591,-6.836241,7.760843
3.777000,-0.790309,-6.837002,7.762376
3.797000,-0.787650,-6.837395,7.764029
3.817000,-0.786153,-6.839347,7.766490
3.837000,-0.784451,-6.839595,7.768736
3.857000,-0.781534,-6.840369,7.769974
3.877000,-0.778919,-6.841089,7.771699
3.897000,-0.776334,-6.840430,7.773172
3.917000,-0.774645,-6.841770,7.774759
3.937000,-0.772479,-6.843265,7.775897
3.957000,-0.769736,-6.844411,7.777096
3.977000,-0.767529,-6.843371,7.779332
3.997000,-0.766260,-6.844092,7.780835
4.017000,-0.763696,-6.846842,7.780472
4.037000,-0.761431,-6.847713,7.781734
4.057000,-0.759645,-6.847033,7.783547
4.077000,-0.757254,-6.847154,7.785513
4.097000,-0.754936,-6.848335,7.786113
4.117000,-0.752929,-6.850457,7.786245
4.137000,-0.750987,-6.852392,7.786851
4.157000,-0.748954,-6.851944,7.788124
4.177000,-0.746885,-6.851589,7.789786
4.197000,-0.745261,-6.855084,7.789642
4.217000,-0.743493,-6.858269,7.789806
4.237000,-0.741410,-6.857611,7.791250
4.257000,-0.739885,-6.857153,7.792367
4.277000,-0.737898,-6.858149,7.793585
4.297000,-0.736289,-6.860371,7.794119
4.317000,-0.734806,-6.861571,7.794425
4.337000,-0.732868,-6.861573,7.795300
4.357000,-0.730927,-6.861727,7.796188
4.394000,-0.729794,-6.862277,7.797450
4.414000,-0.728243,-6.862297,7.798197
4.434000,-0.726132,-6.862683,7.798888
4.454000,-0.724592,-6.863522,7.799740
4.474000,-0.723212,-6.864201,7.801302
4.494000,-0.721630,-6.863578,7.802801
4.514000,-0.720041,-6.864087,7.804069
4.534000,-0.718514,-6.865237,7.804654
4.554000,-0.716956,-6.865298,7.805640
4.574000,-0.715628,-6.865574,7.806688
4.594000,-0.714002,-6.865991,7.807702
4.614000,-0.712848,-6.866212,7.808920
4.634000,-0.711202,-6.866503,7.809696
4.654000,-0.709597,-6.867677,7.810416
4.674000,-0.707840,-6.868001,7.811249
4.694000,-0.706819,-6.868370,7.812049
4.714000,-0.705353,-6.868999,7.812770
4.734000,-0.703806,-6.869932,7.813364
4.754000,-0.702394,-6.869802,7.814574
4.774000,-0.701092,-6.869938,7.815748
4.794000,-0.699540,-6.871173,7.816599
4.814000,-0.697740,-6.872324,7.816747
4.834000,-0.696270,-6.872698,7.817492
4.854000,-0.694861,-6.873163,7.817991
4.874000,-0.693611,-6.874007,7.818844
4.894000,-0.692086,-6.874029,7.819688
4.914000,-0.690791,-6.874696,7.820499
4.934000,-0.689390,-6.875525,7.821447
4.954000,-0.688362,-6.875076,7.822289
4.974000,-0.686865,-6.874919,7.823434
4.994000,-0.685599,-6.876081,7.824280
5.014000,-0.684561,-6.876130,7.824950
5.034000,-0.683150,-6.876992,7.825709
5.054000,-0.681634,-6.877175,7.826365
5.074000,-0.680827,-6.876734,7.827852
5.094000,-0.679765,-6.876034,7.828821
5.114000,-0.678354,-6.877424,7.829422
5.134000,-0.676838,-6.878201,7.829658
5.154000,-0.675983,-6.877367,7.831399
5.174000,-0.675137,-6.876875,7.832572
5.194000,-0.673773,-6.877922,7.832681
5.214000,-0.672470,-6.879245,7.832812
5.234000,-0.671084,-6.879261,7.833780
5.254000,-0.670311,-6.878656,7.835001
5.274000,-0.669210,-6.878583,7.836043
5.294000,-0.668025,-6.879205,7.836620
5.314000,-0.666899,-6.879773,7.837142
5.334000,-0.665785,-6.879474,7.838378
5.354000,-0.664729,-6.880111,7.838979
5.374000,-0.663589,-6.880358,7.840101
5.394000,-0.662627,-6.879670,7.841235
5.414000,-0.661292,-6.880185,7.841879
5.434000,-0.660233,-6.880576,7.842493
5.454000,-0.658898,-6.880340,7.843723
5.474000,-0.657912,-6.879939,7.844486
5.494000,-0.657007,-6.879900,7.845146
5.514000,-0.655656,-6.880437,7.845823
5.534000,-0.654870,-6.880107,7.847092
5.554000,-0.654354,-6.879325,7.848061
5.574000,-0.653126,-6.879605,7.849211
5.594000,-0.651838,-6.879738,7.849943
5.614000,-0.650922,-6.880229,7.850644
5.634000,-0.649991,-6.880332,7.851481
5.654000,-0.649238,-6.880434,7.852478
5.674000,-0.648348,-6.879577,7.853776
5.694000,-0.647227,-6.879614,7.854654
5.714000,-0.646333,-6.879508,7.855140
5.734000,-0.645233,-6.879307,7.856148
5.754000,-0.644527,-6.879634,7.857098
5.774000,-0.643349,-6.879982,7.857655
5.794000,-0.642374,-6.879944,7.858375
5.814000,-0.641266,-6.879164,7.859111
5.834000,-0.640407,-6.879493,7.859959
5.854000,-0.639701,-6.879460,7.860751
5.874000,-0.638739,-6.879738,7.861248
5.894000,-0.637619,-6.879726,7.861931
5.914000,-0.636438,-6.879642,7.862847
5.934000,-0.635269,-6.880709,7.863347
5.954000,-0.634567,-6.881932,7.863890
5.974000,-0.633225,-6.882209,7.864284
5.994000,-0.632519,-6.881790,7.865057
6.014000,-0.631557,-6.881326,7.865965
6.034000,-0.630485,-6.882472,7.865788
6.054000,-0.629328,-6.883102,7.866019
6.074000,-0.628541,-6.883272,7.866894
6.094000,-0.627164,-6.883680,7.867473
6.114000,-0.626806,-6.883317,7.868286
6.134000,-0.625733,-6.883437,7.868707
6.154000,-0.625294,-6.883747,7.869101
6.174000,-0.624859,-6.883911,7.869538
6.194000,-0.624284,-6.883737,7.870234
6.214000,-0.623548,-6.883685,7.870924
6.234000,-0.622460,-6.883538,7.871223
6.254000,-0.621575,-6.883464,7.871759
6.274000,-0.620842,-6.884396,7.872169
6.294000,-0.620140,-6.884864,7.872528
6.314000,-0.619660,-6.884179,7.872811
6.334000,-0.619258,-6.883811,7.873523
6.354000,-0.618021,-6.884716,7.873940
6.374000,-0.617060,-6.885109,7.874329
