accel_time_list,accel_x_list,accel_y_list,accel_z_list
0.473,6.758832,-6.727707,-3.181894
0.493,6.766014,-6.562507,-3.195062
0.513,6.75484,-6.486521,-3.237766
0.533,6.786374,-6.447926,-3.253743
0.553,6.830242,-6.412282,-3.254218
0.573,6.852322,-6.374892,-3.230964
0.593,6.870842,-6.335102,-3.209541
0.613,6.885334,-6.322429,-3.186258
0.633,6.884842,-6.316337,-3.185771
0.653,6.877235,-6.303026,-3.189468
0.673,6.87823,-6.294772,-3.207354
0.693,6.88046,-6.305599,-3.224882
0.713,6.877538,-6.329993,-3.23843
0.733,6.876751,-6.35474,-3.245394
0.753,6.873986,-6.376546,-3.246598
0.773,6.867359,-6.399603,-3.243275
0.793,6.856838,-6.419116,-3.233387
0.813,6.846806,-6.438243,-3.227679
0.833,6.840488,-6.465038,-3.2311
0.853,6.83637,-6.499536,-3.238892
0.873,6.828274,-6.531223,-3.232344
0.893,6.818269,-6.543081,-3.211304
0.913,6.809123,-6.564162,-3.19573
0.933,6.802956,-6.606774,-3.191993
0.953,6.803788,-6.64844,-3.190996
0.973,6.803435,-6.662676,-3.186139
0.993,6.799514,-6.650384,-3.170982
1.013,6.792925,-6.625386,-3.148395
1.033,6.785613,-6.605841,-3.127778
1.053,6.778618,-6.605065,-3.115549
1.073,6.774035,-6.619907,-3.113127
1.093,6.770272,-6.637739,-3.112796
1.113,6.763556,-6.649606,-3.107311
1.133,6.755071,-6.655021,-3.102223
1.153,6.747339,-6.660774,-3.094878
1.173,6.740573,-6.671974,-3.086077
1.193,6.736095,-6.686182,-3.078617
1.213,6.734767,-6.699517,-3.073382
1.233,6.73376,-6.709256,-3.069439
1.253,6.730284,-6.714614,-3.06526
1.273,6.727397,-6.714265,-3.06159
1.293,6.728284,-6.714365,-3.059287
1.313,6.728672,-6.717822,-3.059067
1.333,6.728034,-6.722287,-3.0571
1.353,6.727315,-6.725686,-3.054502
1.373,6.725613,-6.728201,-3.054242
1.393,6.723722,-6.730219,-3.055585
1.413,6.722424,-6.73478,-3.056455
1.433,6.720726,-6.740464,-3.052256
1.453,6.718113,-6.744318,-3.047625
1.473,6.714444,-6.751103,-3.047776
1.493,6.712525,-6.761655,-3.048737
1.513,6.713472,-6.767717,-3.047824
1.533,6.7142,-6.767635,-3.044038
1.553,6.716202,-6.768877,-3.045244
1.573,6.719278,-6.770117,-3.045827
1.593,6.721208,-6.77004,-3.0442
1.613,6.720642,-6.77215,-3.041727
1.633,6.719635,-6.773966,-3.040015
1.653,6.720103,-6.771884,-3.038652
1.673,6.722216,-6.768391,-3.037867
1.693,6.724301,-6.76472,-3.037793
1.713,6.725574,-6.761291,-3.038711
1.733,6.725144,-6.756433,-3.036598
1.753,6.724462,-6.749568,-3.036817
1.773,6.722264,-6.741086,-3.041528
1.793,6.720389,-6.733734,-3.050026
1.813,6.721812,-6.730747,-3.061932
1.833,6.723158,-6.732636,-3.072832
1.853,6.72234,-6.734169,-3.078531
1.873,6.719938,-6.729752,-3.079508
1.893,6.717567,-6.72254,-3.077478
1.913,6.715975,-6.719264,-3.077009
1.933,6.715602,-6.724268,-3.08004
1.953,6.716632,-6.735129,-3.084865
1.973,6.718256,-6.743831,-3.088762
1.993,6.718803,-6.746718,-3.091427
2.013,6.71822,-6.744905,-3.092639
2.033,6.716739,-6.742567,-3.094601
2.053,6.715263,-6.740724,-3.097959
2.073,6.714039,-6.739225,-3.100696
2.093,6.713058,-6.736823,-3.103272
2.113,6.711289,-6.732453,-3.106346
2.133,6.708849,-6.726816,-3.109533
2.153,6.70664,-6.721871,-3.111733
2.173,6.704336,-6.719101,-3.113489
2.193,6.702313,-6.719089,-3.115235
2.213,6.700534,-6.720543,-3.117499
2.233,6.698739,-6.723079,-3.12053
2.253,6.69715,-6.725736,-3.123899
2.273,6.695512,-6.728037,-3.125995
2.293,6.693363,-6.731194,-3.127676
2.313,6.691366,-6.734949,-3.129349
2.333,6.689465,-6.738309,-3.131818
2.353,6.687363,-6.739891,-3.134235
2.373,6.68496,-6.741212,-3.137174
2.393,6.682815,-6.743843,-3.140703
2.413,6.680555,-6.747468,-3.143924
2.433,6.678032,-6.750638,-3.14477
2.453,6.675098,-6.751436,-3.14452
2.536,6.6705,-6.755361,-3.144354
2.556,6.663342,-6.759826,-3.145324
2.576,6.657785,-6.763918,-3.146198
2.596,6.654853,-6.770959,-3.147028
2.616,6.653752,-6.776557,-3.148517
2.636,6.65299,-6.780241,-3.150002
2.656,6.653602,-6.783729,-3.150771
2.676,6.652832,-6.788025,-3.146344
2.696,6.649151,-6.792782,-3.140294
2.716,6.645531,-6.79584,-3.137773
2.736,6.642881,-6.79922,-3.137041
2.756,6.635996,-6.805259,-3.135048
2.776,6.629156,-6.808675,-3.131901
2.796,6.625497,-6.814868,-3.130342
2.816,6.624891,-6.818614,-3.128918
2.836,6.624602,-6.819908,-3.12849
2.856,6.624772,-6.821733,-3.130054
2.876,6.627046,-6.826043,-3.130213
2.896,6.629274,-6.832745,-3.129389
2.916,6.629851,-6.835118,-3.126897
2.936,6.629322,-6.834571,-3.120695
2.956,6.628127,-6.833287,-3.110677
2.976,6.621772,-6.833859,-3.096234
2.996,6.60964,-6.838543,-3.08555
3.016,6.602345,-6.846581,-3.079571
3.036,6.599026,-6.855616,-3.075566
3.056,6.593776,-6.858502,-3.070476
3.076,6.585275,-6.862126,-3.064456
3.096,6.580905,-6.868276,-3.062949
3.116,6.581511,-6.87786,-3.063971
3.136,6.580962,-6.885432,-3.063689
3.156,6.578862,-6.88826,-3.059317
3.176,6.576592,-6.887661,-3.051708
3.196,6.575134,-6.887856,-3.045492
3.216,6.572327,-6.891858,-3.04336
3.236,6.567536,-6.898333,-3.040556
3.256,6.562577,-6.901271,-3.036415
3.276,6.559608,-6.902887,-3.035331
3.296,6.559469,-6.90523,-3.036438
3.316,6.559355,-6.912361,-3.037366
3.336,6.560057,-6.918726,-3.036393
3.356,6.561925,-6.922873,-3.035502
3.376,6.565164,-6.9231,-3.031651
3.396,6.56746,-6.919542,-3.024965
3.416,6.568128,-6.916618,-3.019064
3.436,6.567689,-6.917866,-3.015114
3.456,6.567733,-6.918454,-3.011347
3.476,6.566771,-6.918606,-3.006038
3.496,6.560575,-6.922658,-2.998148
3.516,6.553388,-6.930429,-2.992084
3.536,6.551085,-6.941092,-2.987877
3.556,6.550696,-6.946571,-2.986178
3.576,6.548611,-6.94692,-2.984616
3.596,6.547553,-6.949708,-2.980052
3.616,6.547678,-6.953952,-2.974817
3.636,6.547827,-6.954395,-2.971237
3.656,6.549099,-6.951674,-2.969776
3.676,6.551723,-6.950344,-2.970317
3.696,6.55468,-6.952738,-2.971475
3.716,6.557583,-6.955492,-2.97267
3.736,6.560122,-6.955967,-2.973277
3.756,6.5612,-6.956845,-2.9734
3.776,6.561165,-6.959318,-2.972349
3.796,6.561131,-6.961862,-2.971356
3.816,6.560761,-6.962944,-2.968769
3.836,6.559175,-6.963728,-2.9658
3.856,6.557891,-6.963594,-2.963101
3.876,6.557195,-6.962792,-2.960405
3.896,6.557128,-6.96159,-2.957544
3.916,6.557685,-6.960065,-2.95555
3.936,6.55814,-6.958484,-2.953959
3.956,6.558399,-6.956535,-2.952982
3.976,6.558369,-6.955205,-2.950746
3.996,6.553406,-6.962962,-2.952291
4.016,6.557974,-6.96942,-2.953031
4.036,6.559432,-6.968032,-2.953117
4.056,6.558721,-6.966347,-2.95325
4.076,6.559501,-6.968366,-2.95398
4.096,6.558238,-6.972352,-2.951112
4.116,6.554282,-6.973497,-2.942598
4.136,6.557261,-6.971303,-2.930339
4.156,6.556524,-6.969034,-2.921075
4.176,6.548946,-6.967483,-2.912023
4.196,6.543766,-6.965109,-2.905935
4.216,6.543787,-6.965943,-2.904816
4.236,6.54237,-6.967391,-2.906031
4.256,6.54372,-6.965713,-2.908191
4.276,6.546781,-6.965033,-2.907384
4.296,6.55108,-6.965413,-2.902324
4.316,6.555241,-6.963587,-2.897961
4.336,6.553997,-6.961683,-2.896826
4.356,6.554704,-6.960947,-2.899701
4.376,6.558038,-6.961823,-2.902906
4.396,6.558394,-6.962499,-2.900596
4.416,6.558268,-6.964484,-2.897567
4.436,6.558047,-6.96372,-2.897609
4.456,6.562904,-6.96725,-2.899518
4.476,6.56843,-6.979315,-2.899277
4.496,6.572058,-6.994708,-2.898393
4.516,6.567485,-7.007888,-2.900246
4.611,6.564467,-7.004966,-2.896622
4.631,6.562987,-7.000278,-2.892484
4.651,6.562527,-6.996547,-2.887884
4.671,6.561498,-6.994912,-2.883235
4.691,6.561149,-6.992049,-2.880092
4.711,6.562599,-6.986604,-2.876837
4.731,6.565231,-6.978054,-2.872992
4.751,6.568939,-6.968966,-2.871772
4.771,6.573041,-6.962076,-2.870707
4.791,6.576072,-6.959948,-2.867762
4.811,6.578906,-6.959038,-2.861087
4.831,6.582668,-6.956461,-2.851246
4.851,6.58613,-6.95427,-2.839757
4.871,6.588359,-6.954877,-2.827855
4.891,6.589442,-6.957849,-2.816504
4.911,6.590872,-6.960671,-2.805361
4.931,6.592312,-6.96574,-2.79524
4.951,6.592709,-6.974181,-2.785795
4.971,6.591449,-6.984166,-2.774816
4.991,6.588382,-6.99283,-2.761936
5.011,6.583766,-7.006436,-2.747581
5.031,6.577999,-7.027399,-2.731381
5.051,6.573055,-7.045974,-2.715368
5.071,6.569119,-7.054762,-2.700736
5.091,6.56515,-7.055729,-2.686873
5.111,6.560192,-7.057285,-2.676548
5.131,6.556121,-7.064499,-2.668745
5.151,6.554054,-7.073462,-2.661211
5.171,6.552223,-7.080108,-2.652101
5.191,6.55041,-7.082449,-2.641046
5.211,6.551273,-7.077681,-2.630701
5.231,6.553516,-7.068698,-2.62587
5.251,6.554875,-7.062391,-2.625468
5.271,6.553994,-7.063929,-2.624736
5.291,6.550943,-7.071532,-2.629158
5.311,6.549479,-7.074989,-2.638445
5.331,6.551332,-7.070247,-2.648835
5.351,6.553934,-7.060908,-2.659194
5.371,6.554259,-7.053602,-2.670861
5.391,6.554557,-7.051707,-2.682843
5.411,6.556767,-7.057254,-2.694896
5.431,6.557926,-7.062769,-2.70738
5.451,6.554811,-7.06605,-2.716866
5.471,6.552039,-7.064055,-2.723695
5.491,6.549271,-7.060548,-2.729857
5.511,6.54416,-7.057028,-2.73421
5.531,6.539124,-7.056608,-2.740698
5.551,6.535,-7.059903,-2.745876
5.571,6.530703,-7.061537,-2.749829
5.591,6.525275,-7.059995,-2.754557
5.611,6.519949,-7.056816,-2.760985
5.631,6.515682,-7.053812,-2.767636
5.651,6.512535,-7.052371,-2.774963
5.671,6.510089,-7.052045,-2.782312
5.691,6.508052,-7.051842,-2.789277
5.711,6.506442,-7.051115,-2.796076
5.731,6.506404,-7.050035,-2.803813
5.751,6.508066,-7.049996,-2.812334
5.771,6.509975,-7.051155,-2.820459
5.791,6.510692,-7.051344,-2.827377
5.811,6.511186,-7.048515,-2.833101
5.831,6.51237,-7.045714,-2.838385
5.851,6.512153,-7.04512,-2.844597
5.871,6.51031,-7.044651,-2.849886
5.891,6.508126,-7.039662,-2.853972
5.911,6.505701,-7.031802,-2.857419
5.931,6.501864,-7.025624,-2.862627
5.951,6.49864,-7.024776,-2.869339
5.971,6.498177,-7.028413,-2.876678
5.991,6.498246,-7.032014,-2.883034
6.011,6.497476,-7.031605,-2.885616
6.031,6.496139,-7.028877,-2.884868
6.051,6.494767,-7.026416,-2.884103
6.071,6.493769,-7.025344,-2.883873
6.091,6.491631,-7.027084,-2.882208
6.111,6.488796,-7.031225,-2.884726
6.131,6.485176,-7.033026,-2.887171
6.151,6.48322,-7.032487,-2.888874
6.171,6.482313,-7.02817,-2.889984
6.191,6.482038,-7.020784,-2.892041
6.211,6.482698,-7.016297,-2.899393
6.231,6.484382,-7.015949,-2.909329
6.251,6.485642,-7.016179,-2.91804
6.271,6.485334,-7.013749,-2.923719
6.291,6.484885,-7.010146,-2.927689
6.311,6.483961,-7.007489,-2.930998
6.331,6.482664,-7.007086,-2.935518
6.351,6.48363,-7.00513,-2.940064
6.371,6.488345,-6.996466,-2.944039
6.391,6.490355,-6.986141,-2.949338
6.411,6.491005,-6.983915,-2.957626
6.431,6.494784,-6.987602,-2.967913
6.451,6.499604,-6.991587,-2.977738
6.471,6.501717,-6.991821,-2.985861
6.491,6.502397,-6.987576,-2.990814
6.511,6.503141,-6.979016,-2.99397
6.531,6.503927,-6.969224,-2.996328
6.551,6.504417,-6.961518,-2.999046
6.571,6.505668,-6.956954,-3.003292
6.591,6.506835,-6.953201,-3.008382
