accel_time_list,accel_x_list,accel_y_list,accel_z_list
0.031000,-0.297500,-1.552500,10.285000
0.051000,-0.317500,-1.517500,10.290000
0.071000,-0.277500,-1.342500,10.302500
0.091000,-0.252500,-1.272500,10.197500
0.111000,-0.212500,-1.190000,10.000000
0.131000,-0.200000,-1.050000,9.730000
0.151000,-0.117500,-0.992500,9.397500
0.171000,-0.112500,-0.772500,9.040000
0.191000,-0.047500,-0.520000,8.665000
0.211000,-0.010000,-0.432500,8.267500
0.231000,-0.085000,-0.395000,7.880000
0.251000,-0.245000,-0.342500,7.540000
0.271000,-0.485000,-0.322500,7.227500
0.291000,-0.820000,-0.327500,6.950000
0.311000,-1.255000,-0.347500,6.707500
0.331000,-1.790000,-0.377500,6.487500
0.351000,-2.400000,-0.412500,6.270000
0.371000,-3.097500,-0.457500,6.047500
0.391000,-3.897500,-0.515000,5.820000
0.411000,-4.820000,-0.592500,5.590000
0.431000,-5.847500,-0.697500,5.375000
0.451000,-6.930000,-0.827500,5.202500
0.471000,-7.975000,-0.967500,5.070000
0.491000,-8.852500,-1.122500,4.970000
0.511000,-9.480000,-1.285000,4.905000
0.531000,-9.932500,-1.445000,4.860000
0.551000,-10.275000,-1.595000,4.820000
0.571000,-10.510000,-1.732500,4.782500
0.591000,-10.607500,-1.857500,4.747500
0.611000,-10.567500,-1.980000,4.710000
0.631000,-10.435000,-2.095000,4.667500
0.651000,-10.260000,-2.207500,4.622500
0.671000,-10.080000,-2.312500,4.580000
0.691000,-9.917500,-2.415000,4.545000
0.711000,-9.772500,-2.510000,4.520000
0.731000,-9.630000,-2.602500,4.495000
0.751000,-9.492500,-2.687500,4.475000
0.771000,-9.372500,-2.760000,4.455000
0.791000,-9.290000,-2.817500,4.442500
0.811000,-9.235000,-2.860000,4.435000
0.831000,-9.182500,-2.892500,4.415000
0.851000,-9.125000,-2.920000,4.390000
0.871000,-9.087500,-2.957500,4.370000
0.891000,-9.080000,-2.995000,4.362500
0.911000,-9.082500,-3.022500,4.352500
0.931000,-9.080000,-3.037500,4.335000
0.951000,-9.075000,-3.050000,4.317500
0.971000,-9.085000,-3.060000,4.310000
0.991000,-9.100000,-3.055000,4.307500
1.011000,-9.097500,-3.032500,4.300000
1.031000,-9.075000,-2.997500,4.287500
1.051000,-9.050000,-2.955000,4.277500
1.071000,-9.027500,-2.907500,4.275000
1.091000,-8.997500,-2.857500,4.282500
1.111000,-8.955000,-2.812500,4.305000
1.131000,-8.907500,-2.770000,4.332500
1.151000,-8.855000,-2.727500,4.362500
1.171000,-8.797500,-2.697500,4.397500
1.191000,-8.762500,-2.675000,4.457500
1.211000,-8.747500,-2.655000,4.537500
1.231000,-8.715000,-2.640000,4.615000
1.251000,-8.662500,-2.645000,4.680000
1.271000,-8.607500,-2.655000,4.740000
1.291000,-8.540000,-2.657500,4.810000
1.311000,-8.445000,-2.667500,4.900000
1.331000,-8.322500,-2.675000,5.000000
1.351000,-8.162500,-2.667500,5.097500
1.371000,-7.940000,-2.650000,5.175000
1.391000,-7.637500,-2.622500,5.222500
1.411000,-7.250000,-2.582500,5.252500
1.431000,-6.742500,-2.557500,5.262500
1.451000,-6.110000,-2.565000,5.240000
1.471000,-5.380000,-2.567500,5.195000
1.491000,-4.512500,-2.542500,5.140000
1.511000,-3.527500,-2.497500,5.085000
1.531000,-2.530000,-2.470000,5.032500
1.551000,-1.610000,-2.477500,4.940000
1.571000,-0.992500,-2.440000,4.842500
1.591000,-0.967500,-2.327500,4.747500
1.611000,-1.695000,-2.165000,4.527500
1.631000,-2.070000,-2.065000,4.062500
1.651000,-2.277500,-2.070000,3.500000
1.671000,-4.142500,-2.145000,3.165000
1.691000,-6.682500,-2.277500,2.435000
1.711000,-10.565000,-2.420000,2.740000
1.731000,-20.315000,-2.767500,6.992500
1.751000,-36.995000,-2.972500,20.282500
1.771000,-19.572500,-3.345000,2.090000
1.791000,14.667500,-3.295000,-3.492500
1.811000,-12.010000,-2.595000,-3.290000
1.831000,-2.472500,-1.697500,2.437500
1.851000,-5.160000,-2.517500,3.415000
1.871000,-6.272500,-3.590000,4.517500
1.891000,-5.872500,-4.127500,6.452500
1.911000,-4.335000,-3.767500,6.685000
1.931000,-2.320000,-3.420000,6.437500
1.951000,-2.042500,-3.320000,7.110000
1.971000,-1.270000,-3.432500,7.407500
1.991000,-0.745000,-3.175000,7.537500
2.011000,-0.727500,-2.857500,8.095000
2.031000,-0.847500,-2.905000,8.447500
2.051000,-0.770000,-3.062500,8.477500
2.071000,-0.610000,-3.190000,8.567500
2.091000,-0.432500,-3.220000,8.912500
2.111000,-0.365000,-3.117500,9.147500
2.131000,-0.227500,-3.030000,9.150000
2.151000,-0.150000,-2.990000,9.282500
2.171000,-0.165000,-2.955000,9.472500
2.191000,-0.162500,-2.952500,9.570000
2.211000,-0.117500,-2.950000,9.630000
2.231000,-0.092500,-2.922500,9.697500
2.251000,-0.065000,-2.927500,9.757500
2.271000,-0.017500,-2.917500,9.817500
2.291000,0.057500,-2.875000,9.840000
2.311000,0.165000,-2.795000,9.857500
2.331000,0.225000,-2.692500,9.897500
2.351000,0.275000,-2.647500,9.927500
2.371000,0.327500,-2.637500,9.927500
2.391000,0.355000,-2.605000,9.970000
2.411000,0.375000,-2.565000,10.010000
2.431000,0.397500,-2.557500,10.037500
2.451000,0.447500,-2.535000,10.042500
2.471000,0.477500,-2.495000,10.070000
2.491000,0.497500,-2.462500,10.100000
2.511000,0.522500,-2.452500,10.112500
2.531000,0.550000,-2.435000,10.120000
2.551000,0.565000,-2.407500,10.150000
2.571000,0.580000,-2.392500,10.172500
2.591000,0.600000,-2.380000,10.187500
2.611000,0.622500,-2.362500,10.195000
2.631000,0.635000,-2.345000,10.220000
2.651000,0.645000,-2.327500,10.242500
2.671000,0.660000,-2.315000,10.255000
2.691000,0.677500,-2.302500,10.260000
2.711000,0.690000,-2.290000,10.277500
2.731000,0.697500,-2.275000,10.297500
2.751000,0.707500,-2.262500,10.307500
2.771000,0.717500,-2.255000,10.317500
2.791000,0.730000,-2.242500,10.327500
2.811000,0.737500,-2.230000,10.342500
2.831000,0.747500,-2.220000,10.352500
2.851000,0.757500,-2.210000,10.352500
2.871000,0.767500,-2.200000,10.365000
2.891000,0.772500,-2.187500,10.380000
2.911000,0.780000,-2.180000,10.387500
2.931000,0.787500,-2.175000,10.390000
2.951000,0.795000,-2.165000,10.400000
2.971000,0.800000,-2.152500,10.412500
2.991000,0.805000,-2.145000,10.420000
3.011000,0.815000,-2.140000,10.422500
3.031000,0.822500,-2.132500,10.427500
3.051000,0.827500,-2.125000,10.435000
3.071000,0.832500,-2.130000,10.435000
3.091000,0.840000,-2.135000,10.432500
3.111000,0.845000,-2.130000,10.435000
3.131000,0.842500,-2.112500,10.452500
3.151000,0.840000,-2.095000,10.467500
3.171000,0.852500,-2.080000,10.467500
3.191000,0.860000,-2.062500,10.477500
3.211000,0.862500,-2.040000,10.492500
3.231000,0.867500,-2.030000,10.497500
3.251000,0.875000,-2.020000,10.497500
3.271000,0.877500,-2.005000,10.510000
3.291000,0.877500,-1.992500,10.517500
3.311000,0.895000,-1.980000,10.512500
3.331000,0.895000,-1.965000,10.522500
3.351000,0.897500,-1.955000,10.530000
3.371000,0.905000,-1.950000,10.532500
3.391000,0.907500,-1.942500,10.535000
3.411000,0.912500,-1.927500,10.542500
3.431000,0.917500,-1.920000,10.547500
3.451000,0.920000,-1.915000,10.550000
3.471000,0.927500,-1.902500,10.550000
3.491000,0.932500,-1.892500,10.557500
3.511000,0.932500,-1.882500,10.565000
3.531000,0.935000,-1.882500,10.567500
3.551000,0.940000,-1.875000,10.567500
3.571000,0.942500,-1.862500,10.575000
3.591000,0.945000,-1.852500,10.580000
3.611000,0.952500,-1.850000,10.580000
3.631000,0.957500,-1.842500,10.582500
3.651000,0.960000,-1.830000,10.587500
3.671000,0.962500,-1.827500,10.590000
3.691000,0.967500,-1.825000,10.592500
3.711000,0.972500,-1.815000,10.592500
3.731000,0.972500,-1.805000,10.600000
3.751000,0.975000,-1.805000,10.602500
3.771000,0.980000,-1.800000,10.605000
3.791000,0.985000,-1.792500,10.607500
3.811000,0.985000,-1.785000,10.612500
3.831000,0.987500,-1.782500,10.615000
3.851000,0.990000,-1.782500,10.617500
3.871000,0.995000,-1.777500,10.617500
3.891000,0.997500,-1.767500,10.622500
3.911000,0.997500,-1.760000,10.627500
3.931000,1.000000,-1.755000,10.630000
3.951000,1.005000,-1.750000,10.632500
3.971000,1.005000,-1.747500,10.640000
3.991000,1.002500,-1.747500,10.650000
4.011000,1.007500,-1.742500,10.650000
4.031000,1.015000,-1.735000,10.645000
4.051000,1.022500,-1.717500,10.642500
4.071000,1.027500,-1.692500,10.647500
4.091000,1.035000,-1.680000,10.650000
4.111000,1.040000,-1.680000,10.650000
4.131000,1.047500,-1.670000,10.645000
4.151000,1.052500,-1.655000,10.650000
4.171000,1.055000,-1.650000,10.655000
4.191000,1.057500,-1.647500,10.657500
4.211000,1.062500,-1.635000,10.657500
4.231000,1.065000,-1.630000,10.662500
4.251000,1.075000,-1.627500,10.662500
4.271000,1.080000,-1.615000,10.657500
4.291000,1.087500,-1.602500,10.660000
4.311000,1.095000,-1.600000,10.660000
4.331000,1.097500,-1.600000,10.660000
4.351000,1.102500,-1.600000,10.660000
4.371000,1.112500,-1.590000,10.655000
4.391000,1.112500,-1.575000,10.660000
4.411000,1.110000,-1.580000,10.667500
4.431000,1.115000,-1.590000,10.660000
4.451000,1.127500,-1.577500,10.665000
4.471000,1.135000,-1.577500,10.667500
4.491000,1.142500,-1.585000,10.667500
4.511000,1.147500,-1.585000,10.670000
4.531000,1.155000,-1.562500,10.670000
4.551000,1.160000,-1.530000,10.672500
4.571000,1.162500,-1.520000,10.680000
4.591000,1.165000,-1.517500,10.680000
4.611000,1.165000,-1.512500,10.687500
4.631000,1.170000,-1.515000,10.685000
4.651000,1.175000,-1.507500,10.687500
4.671000,1.180000,-1.497500,10.692500
4.691000,1.182500,-1.485000,10.695000
4.711000,1.190000,-1.482500,10.690000
4.731000,1.200000,-1.470000,10.675000
4.751000,1.200000,-1.442500,10.690000
4.771000,1.195000,-1.437500,10.705000
4.791000,1.207500,-1.437500,10.692500
4.811000,1.222500,-1.402500,10.692500
4.831000,1.217500,-1.390000,10.700000
4.851000,1.210000,-1.400000,10.707500
4.871000,1.197500,-1.417500,10.712500
4.891000,1.195000,-1.417500,10.697500
4.911000,1.190000,-1.397500,10.690000
4.931000,1.177500,-1.375000,10.705000
4.951000,1.157500,-1.362500,10.722500
4.971000,1.157500,-1.357500,10.707500
4.991000,1.165000,-1.340000,10.675000
5.011000,1.150000,-1.320000,10.695000
5.031000,1.112500,-1.315000,10.730000
5.051000,1.090000,-1.320000,10.752500
5.071000,1.077500,-1.322500,10.757500
5.091000,1.062500,-1.315000,10.770000
5.111000,1.045000,-1.305000,10.785000
5.131000,1.020000,-1.290000,10.795000
5.151000,0.995000,-1.272500,10.802500
5.171000,0.975000,-1.245000,10.805000
5.191000,0.952500,-1.210000,10.807500
5.211000,0.925000,-1.170000,10.805000
5.231000,0.897500,-1.132500,10.805000
5.251000,0.865000,-1.090000,10.807500
5.271000,0.820000,-1.040000,10.810000
5.291000,0.777500,-0.995000,10.805000
5.311000,0.735000,-0.965000,10.797500
5.331000,0.692500,-0.952500,10.787500
5.351000,0.645000,-0.947500,10.772500
5.371000,0.590000,-0.942500,10.752500
5.391000,0.547500,-0.940000,10.737500
5.411000,0.510000,-0.947500,10.725000
5.431000,0.470000,-0.955000,10.710000
5.451000,0.440000,-0.970000,10.692500
5.471000,0.420000,-0.975000,10.685000
5.491000,0.392500,-0.962500,10.700000
5.511000,0.332500,-0.930000,10.727500
5.531000,0.277500,-0.895000,10.745000
5.551000,0.250000,-0.885000,10.750000
5.571000,0.222500,-0.915000,10.762500
5.591000,0.157500,-0.975000,10.785000
5.611000,0.085000,-1.007500,10.797500
5.631000,0.040000,-1.012500,10.795000
5.651000,0.005000,-1.027500,10.782500
5.671000,-0.040000,-1.065000,10.760000
5.691000,-0.072500,-1.102500,10.720000
5.711000,-0.072500,-1.127500,10.670000
5.731000,-0.087500,-1.145000,10.630000
5.751000,-0.117500,-1.162500,10.595000
5.771000,-0.127500,-1.172500,10.550000
5.791000,-0.120000,-1.160000,10.502500
5.811000,-0.100000,-1.127500,10.455000
5.831000,-0.052500,-1.090000,10.405000
5.851000,0.010000,-1.060000,10.350000
5.871000,0.070000,-1.055000,10.307500
5.891000,0.132500,-1.052500,10.272500
5.911000,0.227500,-1.010000,10.230000
5.931000,0.317500,-0.920000,10.205000
5.951000,0.387500,-0.777500,10.235000
5.971000,0.432500,-0.697500,10.367500
5.991000,0.440000,-0.767500,10.552500
6.011000,0.475000,-0.865000,10.715000
6.031000,0.477500,-0.950000,10.802500
6.051000,0.492500,-1.047500,10.792500
6.071000,0.512500,-1.117500,10.780000
6.091000,0.460000,-1.135000,10.820000
6.111000,0.435000,-1.140000,10.900000
6.131000,0.480000,-1.167500,10.927500
6.151000,0.537500,-1.140000,10.932500
6.171000,0.565000,-1.090000,10.932500
6.191000,0.577500,-1.100000,10.917500
6.211000,0.605000,-1.155000,10.907500
6.231000,0.622500,-1.202500,10.902500
6.251000,0.630000,-1.242500,10.895000
6.271000,0.645000,-1.285000,10.882500
6.291000,0.677500,-1.295000,10.892500
6.311000,0.710000,-1.267500,10.900000
6.331000,0.735000,-1.230000,10.880000
6.351000,0.747500,-1.190000,10.880000
6.371000,0.767500,-1.182500,10.892500
6.391000,0.782500,-1.185000,10.897500
6.411000,0.795000,-1.185000,10.897500
6.431000,0.795000,-1.177500,10.905000
6.451000,0.820000,-1.170000,10.910000
6.471000,0.850000,-1.152500,10.902500
6.491000,0.870000,-1.127500,10.892500
6.511000,0.887500,-1.110000,10.892500
6.531000,0.907500,-1.097500,10.890000
6.551000,0.927500,-1.072500,10.882500
6.571000,0.945000,-1.037500,10.882500
6.591000,0.967500,-1.012500,10.880000
6.611000,0.992500,-1.002500,10.872500
6.631000,1.002500,-0.977500,10.870000
6.651000,1.022500,-0.955000,10.870000
6.671000,1.047500,-0.940000,10.870000
6.691000,1.067500,-0.940000,10.865000
6.711000,1.080000,-0.947500,10.860000
6.731000,1.095000,-0.950000,10.857500
6.751000,1.120000,-0.950000,10.855000
6.771000,1.142500,-0.955000,10.850000
6.791000,1.157500,-0.955000,10.850000
6.811000,1.172500,-0.952500,10.850000
6.831000,1.190000,-0.950000,10.847500
6.851000,1.207500,-0.945000,10.845000
6.871000,1.222500,-0.942500,10.845000
6.891000,1.240000,-0.942500,10.845000
6.911000,1.257500,-0.940000,10.842500
6.931000,1.272500,-0.930000,10.840000
6.951000,1.285000,-0.922500,10.840000
6.971000,1.297500,-0.920000,10.840000
6.991000,1.310000,-0.922500,10.837500
7.011000,1.325000,-0.917500,10.840000
7.031000,1.340000,-0.910000,10.840000
7.051000,1.352500,-0.905000,10.837500
7.071000,1.365000,-0.902500,10.835000
7.091000,1.375000,-0.897500,10.835000
7.111000,1.387500,-0.892500,10.837500
7.131000,1.400000,-0.892500,10.835000
7.151000,1.410000,-0.892500,10.835000
7.171000,1.420000,-0.887500,10.835000
7.191000,1.430000,-0.880000,10.835000
7.211000,1.440000,-0.880000,10.835000
7.231000,1.450000,-0.880000,10.835000
7.251000,1.460000,-0.877500,10.832500
7.271000,1.472500,-0.872500,10.832500
7.291000,1.480000,-0.872500,10.832500
7.311000,1.487500,-0.870000,10.832500
7.331000,1.497500,-0.867500,10.830000
7.351000,1.510000,-0.862500,10.832500
7.371000,1.517500,-0.860000,10.830000
7.391000,1.525000,-0.855000,10.830000
7.411000,1.532500,-0.852500,10.830000
7.431000,1.540000,-0.850000,10.830000
7.451000,1.550000,-0.850000,10.830000
7.471000,1.557500,-0.850000,10.827500
7.491000,1.565000,-0.845000,10.827500
7.511000,1.572500,-0.837500,10.830000
7.531000,1.580000,-0.835000,10.827500
7.551000,1.585000,-0.835000,10.827500
7.571000,1.592500,-0.835000,10.827500
7.591000,1.597500,-0.835000,10.827500
7.611000,1.605000,-0.835000,10.827500
7.631000,1.612500,-0.835000,10.825000
7.651000,1.620000,-0.837500,10.822500
7.671000,1.627500,-0.837500,10.822500
7.691000,1.632500,-0.835000,10.822500
7.711000,1.640000,-0.830000,10.825000
7.731000,1.642500,-0.830000,10.825000
7.751000,1.647500,-0.830000,10.825000
7.771000,1.652500,-0.827500,10.822500
7.791000,1.657500,-0.822500,10.822500
7.811000,1.662500,-0.817500,10.822500
7.831000,1.667500,-0.817500,10.822500
7.851000,1.670000,-0.812500,10.822500
7.871000,1.675000,-0.810000,10.825000
7.891000,1.680000,-0.807500,10.822500
7.911000,1.685000,-0.805000,10.822500
7.931000,1.690000,-0.802500,10.822500
7.951000,1.695000,-0.797500,10.822500
7.971000,1.697500,-0.792500,10.822500
7.991000,1.702500,-0.792500,10.822500
8.011000,1.705000,-0.792500,10.822500
