gyro_time_list,gyro_x_list,gyro_y_list,gyro_z_list
0.031000,-0.110000,0.007000,0.170000
0.051000,-0.084000,0.046000,0.139000
0.071000,-0.106000,0.077000,0.134000
0.091000,-0.153000,0.113000,0.144000
0.111000,-0.205000,0.159000,0.158000
0.131000,-0.278000,0.205000,0.182000
0.151000,-0.342000,0.256000,0.215000
0.171000,-0.398000,0.322000,0.259000
0.191000,-0.512000,0.402000,0.318000
0.211000,-0.636000,0.512000,0.377000
0.231000,-0.740000,0.645000,0.461000
0.251000,-0.840000,0.792000,0.567000
0.271000,-0.948000,0.948000,0.688000
0.291000,-1.063000,1.110000,0.829000
0.311000,-1.182000,1.267000,0.987000
0.331000,-1.307000,1.412000,1.156000
0.351000,-1.439000,1.544000,1.333000
0.371000,-1.578000,1.665000,1.512000
0.391000,-1.723000,1.775000,1.688000
0.411000,-1.873000,1.870000,1.852000
0.431000,-2.027000,1.944000,1.996000
0.451000,-2.179000,1.992000,2.114000
0.471000,-2.320000,2.013000,2.198000
0.491000,-2.433000,2.008000,2.242000
0.511000,-2.509000,1.984000,2.246000
0.531000,-2.536000,1.949000,2.222000
0.551000,-2.523000,1.902000,2.178000
0.571000,-2.487000,1.844000,2.117000
0.591000,-2.439000,1.774000,2.046000
0.611000,-2.388000,1.695000,1.970000
0.631000,-2.338000,1.612000,1.890000
0.651000,-2.287000,1.530000,1.810000
0.671000,-2.233000,1.450000,1.730000
0.691000,-2.173000,1.373000,1.654000
0.711000,-2.105000,1.298000,1.581000
0.731000,-2.032000,1.225000,1.511000
0.751000,-1.955000,1.155000,1.440000
0.771000,-1.876000,1.089000,1.368000
0.791000,-1.798000,1.027000,1.292000
0.811000,-1.721000,0.965000,1.213000
0.831000,-1.650000,0.903000,1.130000
0.851000,-1.585000,0.843000,1.041000
0.871000,-1.522000,0.786000,0.948000
0.891000,-1.450000,0.731000,0.852000
0.911000,-1.367000,0.674000,0.755000
0.931000,-1.280000,0.618000,0.656000
0.951000,-1.188000,0.564000,0.557000
0.971000,-1.086000,0.513000,0.457000
0.991000,-0.970000,0.461000,0.361000
1.011000,-0.847000,0.407000,0.267000
1.031000,-0.727000,0.354000,0.178000
1.051000,-0.615000,0.305000,0.096000
1.071000,-0.509000,0.259000,0.023000
1.091000,-0.408000,0.214000,-0.039000
1.111000,-0.318000,0.169000,-0.090000
1.131000,-0.242000,0.126000,-0.134000
1.151000,-0.181000,0.083000,-0.173000
1.171000,-0.131000,0.044000,-0.207000
1.191000,-0.084000,0.005000,-0.234000
1.211000,-0.037000,-0.041000,-0.256000
1.231000,0.003000,-0.094000,-0.276000
1.251000,0.035000,-0.147000,-0.297000
1.271000,0.069000,-0.198000,-0.316000
1.291000,0.108000,-0.250000,-0.335000
1.311000,0.150000,-0.302000,-0.355000
1.331000,0.186000,-0.353000,-0.378000
1.351000,0.219000,-0.407000,-0.402000
1.371000,0.253000,-0.466000,-0.428000
1.391000,0.294000,-0.529000,-0.456000
1.411000,0.332000,-0.595000,-0.487000
1.431000,0.361000,-0.666000,-0.522000
1.451000,0.399000,-0.736000,-0.562000
1.471000,0.461000,-0.804000,-0.600000
1.491000,0.526000,-0.869000,-0.634000
1.511000,0.574000,-0.926000,-0.664000
1.531000,0.611000,-0.974000,-0.692000
1.551000,0.666000,-0.999000,-0.705000
1.571000,0.735000,-0.996000,-0.696000
1.591000,0.771000,-0.981000,-0.669000
1.611000,0.713000,-0.965000,-0.634000
1.631000,0.576000,-0.947000,-0.589000
1.651000,0.465000,-0.853000,-0.526000
1.671000,0.395000,-0.702000,-0.460000
1.691000,0.339000,-0.563000,-0.397000
1.711000,0.401000,-0.391000,-0.312000
1.731000,0.500000,-0.402000,-0.283000
1.751000,0.414000,-0.590000,-0.296000
1.771000,0.369000,-0.785000,-0.372000
1.791000,0.492000,-0.833000,-0.520000
1.811000,0.482000,-0.723000,-0.627000
1.831000,0.298000,-0.651000,-0.697000
1.851000,0.064000,-0.569000,-0.641000
1.871000,-0.016000,-0.520000,-0.588000
1.891000,0.029000,-0.516000,-0.555000
1.911000,0.080000,-0.551000,-0.543000
1.931000,0.081000,-0.541000,-0.527000
1.951000,0.074000,-0.508000,-0.502000
1.971000,0.076000,-0.482000,-0.486000
1.991000,0.090000,-0.446000,-0.461000
2.011000,0.069000,-0.408000,-0.436000
2.031000,0.030000,-0.383000,-0.415000
2.051000,0.006000,-0.359000,-0.394000
2.071000,0.007000,-0.333000,-0.373000
2.091000,0.024000,-0.316000,-0.356000
2.111000,0.037000,-0.307000,-0.341000
2.131000,0.040000,-0.297000,-0.328000
2.151000,0.043000,-0.282000,-0.315000
2.171000,0.045000,-0.274000,-0.304000
2.191000,0.045000,-0.270000,-0.295000
2.211000,0.047000,-0.269000,-0.288000
2.231000,0.049000,-0.266000,-0.282000
2.251000,0.052000,-0.265000,-0.277000
2.271000,0.060000,-0.266000,-0.271000
2.291000,0.072000,-0.267000,-0.266000
2.311000,0.083000,-0.265000,-0.259000
2.331000,0.087000,-0.262000,-0.252000
2.351000,0.084000,-0.258000,-0.246000
2.371000,0.081000,-0.252000,-0.240000
2.391000,0.080000,-0.246000,-0.235000
2.411000,0.078000,-0.241000,-0.229000
2.431000,0.076000,-0.237000,-0.224000
2.451000,0.076000,-0.233000,-0.219000
2.471000,0.076000,-0.227000,-0.213000
2.491000,0.072000,-0.222000,-0.209000
2.511000,0.069000,-0.217000,-0.204000
2.531000,0.068000,-0.211000,-0.200000
2.551000,0.066000,-0.205000,-0.196000
2.571000,0.063000,-0.201000,-0.192000
2.591000,0.061000,-0.196000,-0.188000
2.611000,0.059000,-0.191000,-0.184000
2.631000,0.058000,-0.186000,-0.180000
2.651000,0.055000,-0.182000,-0.177000
2.671000,0.053000,-0.178000,-0.174000
2.691000,0.051000,-0.173000,-0.171000
2.711000,0.050000,-0.169000,-0.167000
2.731000,0.049000,-0.165000,-0.164000
2.751000,0.047000,-0.161000,-0.161000
2.771000,0.045000,-0.158000,-0.159000
2.791000,0.044000,-0.154000,-0.156000
2.811000,0.043000,-0.151000,-0.154000
2.831000,0.041000,-0.148000,-0.151000
2.851000,0.040000,-0.145000,-0.149000
2.871000,0.039000,-0.141000,-0.146000
2.891000,0.038000,-0.138000,-0.144000
2.911000,0.036000,-0.136000,-0.142000
2.931000,0.035000,-0.133000,-0.140000
2.951000,0.035000,-0.130000,-0.137000
2.971000,0.034000,-0.127000,-0.135000
2.991000,0.032000,-0.125000,-0.133000
3.011000,0.032000,-0.123000,-0.131000
3.031000,0.031000,-0.120000,-0.130000
3.051000,0.031000,-0.118000,-0.128000
3.071000,0.031000,-0.116000,-0.126000
3.091000,0.033000,-0.114000,-0.124000
3.111000,0.038000,-0.112000,-0.121000
3.131000,0.042000,-0.110000,-0.119000
3.151000,0.044000,-0.110000,-0.117000
3.171000,0.045000,-0.109000,-0.115000
3.191000,0.047000,-0.107000,-0.113000
3.211000,0.047000,-0.105000,-0.111000
3.231000,0.046000,-0.104000,-0.110000
3.251000,0.045000,-0.103000,-0.108000
3.271000,0.045000,-0.101000,-0.107000
3.291000,0.043000,-0.100000,-0.105000
3.311000,0.043000,-0.099000,-0.104000
3.331000,0.041000,-0.097000,-0.103000
3.351000,0.039000,-0.095000,-0.102000
3.371000,0.038000,-0.094000,-0.101000
3.391000,0.037000,-0.093000,-0.099000
3.411000,0.036000,-0.091000,-0.098000
3.431000,0.034000,-0.090000,-0.097000
3.451000,0.033000,-0.089000,-0.096000
3.471000,0.032000,-0.088000,-0.095000
3.491000,0.031000,-0.086000,-0.094000
3.511000,0.030000,-0.085000,-0.093000
3.531000,0.029000,-0.084000,-0.092000
3.551000,0.028000,-0.082000,-0.092000
3.571000,0.028000,-0.081000,-0.091000
3.591000,0.026000,-0.080000,-0.090000
3.611000,0.025000,-0.080000,-0.089000
3.631000,0.025000,-0.079000,-0.088000
3.651000,0.024000,-0.077000,-0.087000
3.671000,0.022000,-0.077000,-0.086000
3.691000,0.022000,-0.075000,-0.086000
3.711000,0.022000,-0.074000,-0.085000
3.731000,0.021000,-0.073000,-0.084000
3.751000,0.020000,-0.072000,-0.083000
3.771000,0.019000,-0.071000,-0.083000
3.791000,0.019000,-0.070000,-0.082000
3.811000,0.019000,-0.069000,-0.081000
3.831000,0.018000,-0.068000,-0.081000
3.851000,0.019000,-0.068000,-0.080000
3.871000,0.019000,-0.068000,-0.079000
3.891000,0.020000,-0.067000,-0.078000
3.911000,0.020000,-0.066000,-0.077000
3.931000,0.020000,-0.066000,-0.076000
3.951000,0.021000,-0.066000,-0.075000
3.971000,0.022000,-0.066000,-0.074000
3.991000,0.024000,-0.067000,-0.073000
4.011000,0.026000,-0.068000,-0.072000
4.031000,0.028000,-0.069000,-0.071000
4.051000,0.030000,-0.070000,-0.071000
4.071000,0.030000,-0.070000,-0.070000
4.091000,0.028000,-0.070000,-0.070000
4.111000,0.027000,-0.070000,-0.069000
4.131000,0.026000,-0.069000,-0.069000
4.151000,0.025000,-0.068000,-0.068000
4.171000,0.023000,-0.068000,-0.068000
4.191000,0.021000,-0.068000,-0.067000
4.211000,0.020000,-0.069000,-0.067000
4.231000,0.018000,-0.069000,-0.066000
4.251000,0.017000,-0.070000,-0.066000
4.271000,0.016000,-0.070000,-0.065000
4.291000,0.014000,-0.069000,-0.065000
4.311000,0.012000,-0.068000,-0.064000
4.331000,0.011000,-0.067000,-0.064000
4.351000,0.011000,-0.066000,-0.063000
4.371000,0.011000,-0.066000,-0.063000
4.391000,0.010000,-0.064000,-0.064000
4.411000,0.008000,-0.063000,-0.065000
4.431000,0.010000,-0.062000,-0.066000
4.451000,0.011000,-0.061000,-0.068000
4.471000,0.011000,-0.059000,-0.069000
4.491000,0.012000,-0.057000,-0.070000
4.511000,0.017000,-0.056000,-0.071000
4.531000,0.021000,-0.054000,-0.070000
4.551000,0.022000,-0.053000,-0.069000
4.571000,0.021000,-0.051000,-0.068000
4.591000,0.020000,-0.050000,-0.067000
4.611000,0.019000,-0.049000,-0.067000
4.631000,0.019000,-0.049000,-0.066000
4.651000,0.020000,-0.048000,-0.066000
4.671000,0.021000,-0.047000,-0.066000
4.691000,0.021000,-0.046000,-0.067000
4.711000,0.022000,-0.044000,-0.067000
4.731000,0.025000,-0.042000,-0.065000
4.751000,0.027000,-0.039000,-0.063000
4.771000,0.025000,-0.038000,-0.063000
4.791000,0.025000,-0.037000,-0.063000
4.811000,0.023000,-0.033000,-0.062000
4.831000,0.018000,-0.028000,-0.060000
4.851000,0.014000,-0.024000,-0.057000
4.871000,0.016000,-0.020000,-0.054000
4.891000,0.021000,-0.015000,-0.050000
4.911000,0.027000,-0.009000,-0.047000
4.931000,0.031000,-0.001000,-0.043000
4.951000,0.033000,0.004000,-0.039000
4.971000,0.035000,0.009000,-0.034000
4.991000,0.038000,0.018000,-0.028000
5.011000,0.039000,0.029000,-0.024000
5.031000,0.040000,0.037000,-0.020000
5.051000,0.042000,0.042000,-0.016000
5.071000,0.048000,0.047000,-0.011000
5.091000,0.057000,0.052000,-0.006000
5.111000,0.066000,0.057000,-0.001000
5.131000,0.076000,0.062000,0.003000
5.151000,0.086000,0.067000,0.008000
5.171000,0.095000,0.071000,0.012000
5.191000,0.101000,0.077000,0.016000
5.211000,0.105000,0.082000,0.020000
5.231000,0.107000,0.088000,0.023000
5.251000,0.106000,0.094000,0.025000
5.271000,0.103000,0.099000,0.029000
5.291000,0.093000,0.102000,0.031000
5.311000,0.081000,0.105000,0.031000
5.331000,0.069000,0.107000,0.031000
5.351000,0.058000,0.108000,0.031000
5.371000,0.045000,0.108000,0.030000
5.391000,0.032000,0.109000,0.028000
5.411000,0.019000,0.109000,0.024000
5.431000,0.010000,0.110000,0.020000
5.451000,0.006000,0.111000,0.016000
5.471000,0.008000,0.112000,0.012000
5.491000,0.010000,0.115000,0.010000
5.511000,0.008000,0.114000,0.008000
5.531000,-0.002000,0.111000,0.007000
5.551000,-0.020000,0.106000,0.004000
5.571000,-0.039000,0.101000,0.001000
5.591000,-0.048000,0.095000,-0.002000
5.611000,-0.049000,0.087000,-0.006000
5.631000,-0.054000,0.076000,-0.012000
5.651000,-0.064000,0.065000,-0.019000
5.671000,-0.075000,0.054000,-0.027000
5.691000,-0.083000,0.043000,-0.035000
5.711000,-0.092000,0.034000,-0.044000
5.731000,-0.099000,0.028000,-0.052000
5.751000,-0.104000,0.024000,-0.060000
5.771000,-0.106000,0.019000,-0.067000
5.791000,-0.109000,0.017000,-0.072000
5.811000,-0.115000,0.017000,-0.077000
5.831000,-0.126000,0.017000,-0.082000
5.851000,-0.137000,0.021000,-0.083000
5.871000,-0.138000,0.027000,-0.080000
5.891000,-0.124000,0.033000,-0.076000
5.911000,-0.095000,0.039000,-0.072000
5.931000,-0.069000,0.046000,-0.069000
5.951000,-0.067000,0.053000,-0.067000
5.971000,-0.096000,0.056000,-0.066000
5.991000,-0.123000,0.050000,-0.067000
6.011000,-0.132000,0.036000,-0.068000
6.031000,-0.130000,0.019000,-0.070000
6.051000,-0.122000,0.001000,-0.073000
6.071000,-0.105000,-0.012000,-0.074000
6.091000,-0.086000,-0.022000,-0.075000
6.111000,-0.074000,-0.034000,-0.078000
6.131000,-0.066000,-0.045000,-0.082000
6.151000,-0.058000,-0.050000,-0.085000
6.171000,-0.058000,-0.053000,-0.086000
6.191000,-0.064000,-0.054000,-0.088000
6.211000,-0.065000,-0.054000,-0.090000
6.231000,-0.062000,-0.054000,-0.091000
6.251000,-0.054000,-0.055000,-0.092000
6.271000,-0.041000,-0.056000,-0.094000
6.291000,-0.024000,-0.056000,-0.095000
6.311000,-0.006000,-0.057000,-0.094000
6.331000,0.006000,-0.057000,-0.092000
6.351000,0.013000,-0.057000,-0.091000
6.371000,0.016000,-0.058000,-0.089000
6.391000,0.020000,-0.058000,-0.088000
6.411000,0.025000,-0.059000,-0.087000
6.431000,0.031000,-0.061000,-0.087000
6.451000,0.036000,-0.063000,-0.087000
6.471000,0.040000,-0.065000,-0.087000
6.491000,0.044000,-0.066000,-0.087000
6.511000,0.047000,-0.067000,-0.087000
6.531000,0.049000,-0.068000,-0.087000
6.551000,0.051000,-0.069000,-0.087000
6.571000,0.050000,-0.069000,-0.087000
6.591000,0.046000,-0.070000,-0.086000
6.611000,0.042000,-0.069000,-0.086000
6.631000,0.036000,-0.069000,-0.086000
6.651000,0.029000,-0.069000,-0.086000
6.671000,0.020000,-0.069000,-0.086000
6.691000,0.011000,-0.068000,-0.085000
6.711000,0.005000,-0.068000,-0.084000
6.731000,0.001000,-0.068000,-0.084000
6.751000,-0.003000,-0.068000,-0.083000
6.771000,-0.005000,-0.067000,-0.082000
6.791000,-0.005000,-0.066000,-0.081000
6.811000,-0.005000,-0.065000,-0.081000
6.831000,-0.005000,-0.064000,-0.080000
6.851000,-0.004000,-0.063000,-0.080000
6.871000,-0.004000,-0.062000,-0.079000
6.891000,-0.003000,-0.061000,-0.078000
6.911000,-0.003000,-0.060000,-0.078000
6.931000,-0.002000,-0.059000,-0.077000
6.951000,-0.003000,-0.058000,-0.076000
6.971000,-0.004000,-0.057000,-0.075000
6.991000,-0.004000,-0.056000,-0.075000
7.011000,-0.003000,-0.055000,-0.074000
7.031000,-0.003000,-0.054000,-0.073000
7.051000,-0.004000,-0.053000,-0.073000
7.071000,-0.005000,-0.052000,-0.072000
7.091000,-0.005000,-0.051000,-0.071000
7.111000,-0.006000,-0.050000,-0.070000
7.131000,-0.007000,-0.049000,-0.070000
7.151000,-0.007000,-0.049000,-0.069000
7.171000,-0.008000,-0.048000,-0.069000
7.191000,-0.008000,-0.047000,-0.068000
7.211000,-0.009000,-0.046000,-0.068000
7.231000,-0.010000,-0.046000,-0.067000
7.251000,-0.010000,-0.045000,-0.067000
7.271000,-0.010000,-0.044000,-0.066000
7.291000,-0.010000,-0.043000,-0.065000
7.311000,-0.010000,-0.043000,-0.065000
7.331000,-0.010000,-0.042000,-0.064000
7.351000,-0.010000,-0.041000,-0.064000
7.371000,-0.010000,-0.041000,-0.063000
7.391000,-0.011000,-0.040000,-0.063000
7.411000,-0.012000,-0.039000,-0.063000
7.431000,-0.012000,-0.039000,-0.062000
7.451000,-0.013000,-0.038000,-0.062000
7.471000,-0.013000,-0.037000,-0.061000
7.491000,-0.013000,-0.036000,-0.061000
7.511000,-0.014000,-0.035000,-0.061000
7.531000,-0.016000,-0.035000,-0.060000
7.551000,-0.017000,-0.034000,-0.060000
7.571000,-0.019000,-0.034000,-0.060000
7.591000,-0.019000,-0.033000,-0.059000
7.611000,-0.020000,-0.033000,-0.059000
7.631000,-0.020000,-0.032000,-0.059000
7.651000,-0.020000,-0.031000,-0.058000
7.671000,-0.019000,-0.030000,-0.058000
7.691000,-0.018000,-0.029000,-0.057000
7.711000,-0.018000,-0.029000,-0.057000
7.731000,-0.017000,-0.028000,-0.056000
7.751000,-0.016000,-0.027000,-0.055000
7.771000,-0.015000,-0.027000,-0.055000
7.791000,-0.014000,-0.026000,-0.055000
7.811000,-0.014000,-0.025000,-0.054000
7.831000,-0.014000,-0.025000,-0.054000
7.851000,-0.014000,-0.024000,-0.054000
7.871000,-0.014000,-0.024000,-0.053000
7.891000,-0.015000,-0.023000,-0.053000
7.911000,-0.015000,-0.023000,-0.053000
7.931000,-0.015000,-0.022000,-0.052000
7.951000,-0.015000,-0.022000,-0.052000
7.971000,-0.016000,-0.021000,-0.052000
7.991000,-0.017000,-0.021000,-0.051000
8.011000,-0.017000,-0.020000,-0.051000
