accel_time_list,accel_x_list,accel_y_list,accel_z_list
0.016000,0.380000,-2.602500,9.050000
0.036000,0.320000,-2.565000,8.900000
0.056000,0.170000,-2.725000,8.717500
0.076000,-0.240000,-2.760000,8.397500
0.096000,-0.555000,-2.162500,7.965000
0.116000,-0.862500,-1.787500,7.350000
0.136000,-1.225000,-1.382500,6.682500
0.156000,-1.772500,-1.020000,6.107500
0.176000,-2.452500,-0.715000,5.677500
0.196000,-3.180000,-0.507500,5.345000
0.216000,-3.860000,-0.425000,5.090000
0.236000,-4.585000,-0.522500,4.975000
0.256000,-5.540000,-0.962500,4.847500
0.276000,-6.475000,-1.582500,4.667500
0.296000,-7.215000,-2.240000,4.687500
0.316000,-7.942500,-3.095000,4.900000
0.336000,-8.505000,-4.155000,5.077500
0.356000,-8.700000,-5.252500,5.190000
0.376000,-8.657500,-6.355000,5.322500
0.396000,-8.522500,-7.577500,5.485000
0.416000,-8.287500,-8.872500,5.595000
0.436000,-7.977500,-10.010000,5.657500
0.456000,-7.667500,-10.815000,5.700000
0.476000,-7.357500,-11.290000,5.707500
0.496000,-7.005000,-11.515000,5.682500
0.516000,-6.625000,-11.605000,5.652500
0.536000,-6.280000,-11.722500,5.620000
0.556000,-6.032500,-11.855000,5.545000
0.576000,-5.900000,-11.942500,5.452500
0.596000,-5.922500,-12.032500,5.385000
0.616000,-6.177500,-12.207500,5.342500
0.636000,-6.657500,-12.500000,5.297500
0.656000,-7.240000,-12.850000,5.222500
0.676000,-7.805000,-13.175000,5.137500
0.696000,-8.372500,-13.317500,5.040000
0.716000,-8.897500,-13.250000,4.935000
0.736000,-9.227500,-13.025000,4.810000
0.756000,-9.357500,-12.680000,4.652500
0.776000,-9.300000,-12.235000,4.465000
0.796000,-9.127500,-11.707500,4.262500
0.816000,-8.885000,-11.085000,4.060000
0.836000,-8.620000,-10.295000,3.855000
0.856000,-8.317500,-9.277500,3.645000
0.876000,-7.965000,-8.010000,3.437500
0.896000,-7.582500,-6.540000,3.240000
0.916000,-7.277500,-5.030000,3.060000
0.936000,-7.140000,-3.642500,2.910000
0.956000,-7.130000,-2.470000,2.807500
0.976000,-7.225000,-1.497500,2.740000
0.996000,-7.427500,-0.800000,2.672500
1.016000,-7.722500,-0.492500,2.610000
1.036000,-8.147500,-0.562500,2.595000
1.056000,-8.775000,-0.962500,2.615000
1.076000,-9.662500,-1.597500,2.642500
1.096000,-10.860000,-2.805000,2.722500
1.116000,-12.137500,-4.985000,2.835000
1.136000,-13.200000,-7.355000,2.970000
1.156000,-14.010000,-8.880000,3.190000
1.176000,-14.537500,-10.085000,3.402500
1.196000,-14.587500,-11.362500,3.510000
1.216000,-14.137500,-12.407500,3.567500
1.236000,-13.347500,-13.042500,3.642500
1.256000,-12.365000,-13.352500,3.715000
1.276000,-11.307500,-13.480000,3.735000
1.296000,-10.312500,-13.530000,3.717500
1.316000,-9.510000,-13.517500,3.690000
1.336000,-9.045000,-13.455000,3.677500
1.356000,-8.877500,-13.307500,3.612500
1.376000,-8.867500,-13.080000,3.507500
1.396000,-8.967500,-12.800000,3.407500
1.416000,-9.247500,-12.625000,3.342500
1.436000,-9.697500,-12.577500,3.242500
1.456000,-10.122500,-12.380000,3.102500
1.476000,-10.475000,-12.002500,2.955000
1.496000,-10.800000,-11.560000,2.817500
1.516000,-11.022500,-11.060000,2.700000
1.536000,-11.105000,-10.470000,2.605000
1.556000,-11.060000,-9.770000,2.512500
1.576000,-10.965000,-9.010000,2.390000
1.596000,-10.805000,-8.247500,2.235000
1.616000,-10.640000,-7.472500,2.080000
1.636000,-10.555000,-6.755000,1.935000
1.656000,-10.632500,-6.130000,1.757500
1.676000,-10.877500,-5.562500,1.550000
1.696000,-11.285000,-5.055000,1.330000
1.716000,-11.772500,-4.615000,1.105000
1.736000,-12.342500,-4.332500,0.867500
1.756000,-12.950000,-4.257500,0.615000
1.776000,-13.495000,-4.352500,0.360000
1.796000,-13.947500,-4.590000,0.127500
1.816000,-14.292500,-5.000000,-0.030000
1.836000,-14.580000,-5.635000,-0.067500
1.856000,-14.757500,-6.310000,-0.065000
1.876000,-14.870000,-6.955000,-0.070000
1.896000,-14.965000,-7.670000,-0.067500
1.916000,-14.972500,-8.440000,-0.032500
1.936000,-14.877500,-9.085000,0.002500
1.956000,-14.747500,-9.555000,0.005000
1.976000,-14.645000,-9.912500,0.002500
1.996000,-14.525000,-10.150000,0.010000
2.016000,-14.390000,-10.222500,0.005000
2.036000,-14.310000,-10.137500,-0.017500
2.056000,-14.307500,-9.975000,-0.075000
2.076000,-14.320000,-9.815000,-0.150000
2.096000,-14.365000,-9.625000,-0.227500
2.116000,-14.485000,-9.405000,-0.315000
2.136000,-14.645000,-9.137500,-0.417500
2.156000,-14.790000,-8.807500,-0.532500
2.176000,-14.922500,-8.400000,-0.652500
2.196000,-15.052500,-7.975000,-0.755000
2.216000,-15.115000,-7.567500,-0.845000
2.236000,-15.120000,-7.135000,-0.937500
2.256000,-15.040000,-6.602500,-1.045000
2.276000,-14.862500,-5.950000,-1.122500
2.296000,-14.590000,-5.217500,-1.167500
2.316000,-14.245000,-4.492500,-1.197500
2.336000,-13.902500,-3.900000,-1.250000
2.356000,-13.652500,-3.545000,-1.322500
2.376000,-13.602500,-3.375000,-1.422500
2.396000,-13.732500,-3.265000,-1.512500
2.416000,-14.010000,-3.117500,-1.585000
2.436000,-14.397500,-2.987500,-1.667500
2.456000,-14.890000,-2.920000,-1.752500
2.476000,-15.420000,-2.902500,-1.815000
2.496000,-15.877500,-2.945000,-1.847500
2.516000,-16.165000,-3.045000,-1.855000
2.536000,-16.292500,-3.195000,-1.857500
2.556000,-16.307500,-3.375000,-1.862500
2.576000,-16.285000,-3.575000,-1.877500
2.596000,-16.270000,-3.790000,-1.887500
2.616000,-16.192500,-4.022500,-1.892500
2.636000,-16.047500,-4.292500,-1.870000
2.656000,-15.897500,-4.662500,-1.842500
2.676000,-15.757500,-5.112500,-1.867500
2.696000,-15.527500,-5.545000,-1.935000
2.716000,-15.255000,-5.920000,-1.970000
2.736000,-15.122500,-6.275000,-1.957500
2.756000,-15.110000,-6.590000,-1.947500
2.776000,-15.057500,-6.857500,-1.972500
2.796000,-15.080000,-7.062500,-2.012500
2.816000,-15.217500,-7.202500,-2.077500
2.836000,-15.442500,-7.267500,-2.160000
2.856000,-15.720000,-7.225000,-2.225000
2.876000,-15.987500,-7.105000,-2.277500
2.896000,-16.225000,-6.965000,-2.340000
2.916000,-16.450000,-6.820000,-2.415000
2.936000,-16.667500,-6.637500,-2.497500
2.956000,-16.845000,-6.412500,-2.572500
2.976000,-16.920000,-6.170000,-2.652500
2.996000,-16.880000,-5.897500,-2.745000
3.016000,-16.682500,-5.557500,-2.827500
3.036000,-16.365000,-5.105000,-2.872500
3.056000,-15.902500,-4.527500,-2.882500
3.076000,-15.307500,-3.917500,-2.892500
3.096000,-14.697500,-3.352500,-2.932500
3.116000,-14.150000,-2.882500,-2.977500
3.136000,-13.807500,-2.512500,-3.002500
3.156000,-13.792500,-2.235000,-3.017500
3.176000,-14.015000,-2.065000,-3.040000
3.196000,-14.407500,-1.970000,-3.067500
3.216000,-14.927500,-1.897500,-3.107500
3.236000,-15.607500,-1.845000,-3.152500
3.256000,-16.475000,-1.795000,-3.210000
3.276000,-17.422500,-1.755000,-3.265000
3.296000,-18.410000,-1.800000,-3.315000
3.316000,-19.327500,-1.987500,-3.375000
3.336000,-19.927500,-2.350000,-3.452500
3.356000,-19.987500,-2.845000,-3.497500
3.376000,-19.590000,-3.400000,-3.480000
3.396000,-18.892500,-3.972500,-3.417500
3.416000,-18.040000,-4.545000,-3.345000
3.436000,-17.180000,-5.057500,-3.282500
3.456000,-16.390000,-5.457500,-3.232500
3.476000,-15.595000,-5.747500,-3.185000
3.496000,-14.782500,-6.015000,-3.130000
3.516000,-14.142500,-6.320000,-3.080000
3.536000,-13.787500,-6.607500,-3.040000
3.556000,-13.625000,-6.795000,-3.015000
3.576000,-13.632500,-6.942500,-3.022500
3.596000,-13.892500,-7.125000,-3.067500
3.616000,-14.327500,-7.250000,-3.125000
3.636000,-14.827500,-7.300000,-3.175000
3.656000,-15.357500,-7.317500,-3.232500
3.676000,-15.872500,-7.335000,-3.305000
3.696000,-16.385000,-7.362500,-3.380000
3.716000,-16.860000,-7.320000,-3.467500
3.736000,-17.322500,-7.207500,-3.557500
3.756000,-17.680000,-7.037500,-3.637500
3.776000,-17.812500,-6.767500,-3.695000
3.796000,-17.685000,-6.387500,-3.717500
3.816000,-17.312500,-5.925000,-3.707500
3.836000,-16.687500,-5.445000,-3.672500
3.856000,-15.962500,-4.917500,-3.632500
3.876000,-15.227500,-4.387500,-3.607500
3.896000,-14.542500,-3.887500,-3.602500
3.916000,-14.037500,-3.485000,-3.602500
3.936000,-13.807500,-3.195000,-3.605000
3.956000,-13.810000,-2.995000,-3.612500
3.976000,-14.022500,-2.865000,-3.630000
3.996000,-14.347500,-2.762500,-3.655000
4.016000,-14.730000,-2.682500,-3.680000
4.036000,-15.205000,-2.655000,-3.715000
4.056000,-15.735000,-2.680000,-3.747500
4.076000,-16.242500,-2.760000,-3.772500
4.096000,-16.645000,-2.902500,-3.792500
4.116000,-16.890000,-3.102500,-3.805000
4.136000,-16.935000,-3.342500,-3.800000
4.156000,-16.785000,-3.605000,-3.775000
4.176000,-16.527500,-3.890000,-3.745000
4.196000,-16.225000,-4.212500,-3.720000
4.216000,-15.920000,-4.592500,-3.687500
4.236000,-15.587500,-5.015000,-3.657500
4.256000,-15.190000,-5.390000,-3.632500
4.276000,-14.807500,-5.672500,-3.592500
4.296000,-14.490000,-5.907500,-3.527500
4.316000,-14.240000,-6.132500,-3.457500
4.336000,-14.085000,-6.320000,-3.410000
4.356000,-14.067500,-6.410000,-3.390000
4.376000,-14.165000,-6.440000,-3.385000
4.396000,-14.327500,-6.455000,-3.400000
4.416000,-14.535000,-6.435000,-3.420000
4.436000,-14.775000,-6.370000,-3.435000
4.456000,-15.032500,-6.312500,-3.440000
4.476000,-15.307500,-6.355000,-3.465000
4.496000,-15.585000,-6.437500,-3.512500
4.516000,-15.875000,-6.492500,-3.565000
4.536000,-16.140000,-6.515000,-3.610000
4.556000,-16.362500,-6.445000,-3.665000
4.576000,-16.477500,-6.245000,-3.725000
4.596000,-16.445000,-5.927500,-3.760000
4.616000,-16.202500,-5.552500,-3.757500
4.636000,-15.760000,-5.172500,-3.725000
4.656000,-15.262500,-4.737500,-3.687500
4.676000,-14.777500,-4.255000,-3.662500
4.696000,-14.340000,-3.767500,-3.642500
4.716000,-14.010000,-3.305000,-3.617500
4.736000,-13.822500,-2.915000,-3.590000
4.756000,-13.802500,-2.612500,-3.562500
4.776000,-13.932500,-2.405000,-3.542500
4.796000,-14.157500,-2.277500,-3.532500
4.816000,-14.442500,-2.197500,-3.530000
4.836000,-14.810000,-2.155000,-3.537500
4.856000,-15.257500,-2.170000,-3.552500
4.876000,-15.682500,-2.232500,-3.575000
4.896000,-16.077500,-2.362500,-3.597500
4.916000,-16.430000,-2.570000,-3.625000
4.936000,-16.675000,-2.855000,-3.657500
4.956000,-16.740000,-3.182500,-3.692500
4.976000,-16.670000,-3.540000,-3.702500
4.996000,-16.515000,-3.967500,-3.692500
5.016000,-16.262500,-4.475000,-3.675000
5.036000,-15.932500,-5.000000,-3.662500
5.056000,-15.570000,-5.432500,-3.642500
5.076000,-15.217500,-5.735000,-3.607500
5.096000,-14.892500,-5.927500,-3.562500
5.116000,-14.630000,-6.042500,-3.515000
5.136000,-14.467500,-6.112500,-3.480000
5.156000,-14.412500,-6.145000,-3.470000
5.176000,-14.467500,-6.155000,-3.475000
5.196000,-14.610000,-6.175000,-3.472500
5.216000,-14.755000,-6.212500,-3.477500
5.236000,-14.967500,-6.307500,-3.495000
5.256000,-15.257500,-6.467500,-3.522500
5.276000,-15.540000,-6.607500,-3.557500
5.296000,-15.865000,-6.640000,-3.607500
5.316000,-16.235000,-6.552500,-3.665000
5.336000,-16.547500,-6.365000,-3.730000
5.356000,-16.700000,-6.072500,-3.787500
5.376000,-16.690000,-5.652500,-3.817500
5.396000,-16.462500,-5.135000,-3.822500
5.416000,-15.985000,-4.560000,-3.807500
5.436000,-15.382500,-3.917500,-3.792500
5.456000,-14.695000,-3.315000,-3.780000
5.476000,-14.005000,-2.817500,-3.767500
5.496000,-13.442500,-2.445000,-3.752500
5.516000,-13.097500,-2.177500,-3.740000
5.536000,-12.997500,-2.002500,-3.730000
5.556000,-13.060000,-1.897500,-3.722500
5.576000,-13.237500,-1.827500,-3.710000
5.596000,-13.500000,-1.770000,-3.702500
5.616000,-13.845000,-1.745000,-3.702500
5.636000,-14.222500,-1.757500,-3.707500
5.656000,-14.607500,-1.807500,-3.702500
5.676000,-15.032500,-1.905000,-3.690000
5.696000,-15.435000,-2.065000,-3.675000
5.716000,-15.732500,-2.290000,-3.667500
5.736000,-15.875000,-2.557500,-3.672500
5.756000,-15.847500,-2.840000,-3.672500
5.776000,-15.677500,-3.140000,-3.647500
5.796000,-15.425000,-3.470000,-3.605000
5.816000,-15.112500,-3.822500,-3.550000
5.836000,-14.775000,-4.175000,-3.502500
5.856000,-14.427500,-4.505000,-3.450000
5.876000,-14.052500,-4.770000,-3.395000
5.896000,-13.717500,-4.960000,-3.342500
5.916000,-13.560000,-5.087500,-3.292500
5.936000,-13.542500,-5.155000,-3.250000
5.956000,-13.497500,-5.160000,-3.212500
5.976000,-13.447500,-5.160000,-3.177500
5.996000,-13.465000,-5.190000,-3.150000
6.016000,-13.525000,-5.227500,-3.135000
6.036000,-13.625000,-5.265000,-3.122500
6.056000,-13.785000,-5.335000,-3.105000
6.076000,-14.007500,-5.535000,-3.105000
6.096000,-14.252500,-5.780000,-3.140000
6.116000,-14.522500,-5.900000,-3.192500
6.136000,-14.817500,-5.860000,-3.237500
6.156000,-15.077500,-5.747500,-3.277500
6.176000,-15.200000,-5.625000,-3.307500
6.196000,-15.135000,-5.432500,-3.330000
6.216000,-14.940000,-5.147500,-3.332500
6.236000,-14.637500,-4.782500,-3.317500
6.256000,-14.200000,-4.402500,-3.295000
6.276000,-13.687500,-4.050000,-3.275000
6.296000,-13.162500,-3.725000,-3.255000
6.316000,-12.662500,-3.402500,-3.227500
6.336000,-12.245000,-3.085000,-3.192500
6.356000,-11.967500,-2.777500,-3.157500
6.376000,-11.877500,-2.522500,-3.122500
6.396000,-11.920000,-2.345000,-3.087500
6.416000,-12.045000,-2.217500,-3.052500
6.436000,-12.262500,-2.117500,-3.027500
6.456000,-12.562500,-2.037500,-3.012500
6.476000,-12.922500,-2.000000,-2.997500
6.496000,-13.307500,-2.030000,-2.977500
6.516000,-13.707500,-2.145000,-2.967500
6.536000,-14.057500,-2.365000,-2.970000
6.556000,-14.282500,-2.717500,-2.967500
6.576000,-14.365000,-3.185000,-2.945000
6.596000,-14.330000,-3.695000,-2.902500
6.616000,-14.230000,-4.237500,-2.852500
6.636000,-14.105000,-4.775000,-2.780000
6.656000,-14.000000,-5.245000,-2.707500
6.676000,-13.917500,-5.617500,-2.652500
6.696000,-13.837500,-5.945000,-2.592500
6.716000,-13.767500,-6.290000,-2.532500
6.736000,-13.730000,-6.615000,-2.480000
6.756000,-13.750000,-6.872500,-2.445000
6.776000,-13.785000,-7.042500,-2.420000
6.796000,-13.817500,-7.112500,-2.392500
6.816000,-13.832500,-7.137500,-2.375000
6.836000,-13.887500,-7.160000,-2.372500
6.856000,-13.965000,-7.105000,-2.387500
6.876000,-14.012500,-6.940000,-2.407500
6.896000,-14.025000,-6.705000,-2.422500
6.916000,-14.047500,-6.455000,-2.432500
6.936000,-14.052500,-6.172500,-2.445000
6.956000,-14.002500,-5.795000,-2.462500
6.976000,-13.877500,-5.312500,-2.475000
6.996000,-13.700000,-4.830000,-2.467500
7.016000,-13.515000,-4.372500,-2.457500
7.036000,-13.320000,-3.905000,-2.447500
7.056000,-13.122500,-3.430000,-2.447500
7.076000,-12.962500,-3.040000,-2.462500
7.096000,-12.877500,-2.792500,-2.487500
7.116000,-12.907500,-2.647500,-2.515000
7.136000,-13.060000,-2.535000,-2.545000
7.156000,-13.352500,-2.445000,-2.587500
7.176000,-13.797500,-2.385000,-2.647500
7.196000,-14.390000,-2.387500,-2.725000
7.216000,-15.170000,-2.440000,-2.800000
7.236000,-16.177500,-2.562500,-2.882500
7.256000,-17.260000,-2.805000,-2.985000
7.276000,-18.105000,-3.160000,-3.105000
7.296000,-18.302500,-3.585000,-3.222500
7.316000,-17.875000,-4.042500,-3.300000
7.336000,-17.097500,-4.462500,-3.310000
7.356000,-16.185000,-4.800000,-3.275000
7.376000,-15.252500,-5.055000,-3.232500
7.396000,-14.342500,-5.260000,-3.197500
7.416000,-13.440000,-5.467500,-3.177500
7.436000,-12.545000,-5.705000,-3.162500
7.456000,-11.795000,-5.952500,-3.132500
7.476000,-11.272500,-6.170000,-3.117500
7.496000,-11.057500,-6.362500,-3.110000
7.516000,-11.195000,-6.542500,-3.095000
7.536000,-11.535000,-6.755000,-3.077500
7.556000,-11.977500,-7.030000,-3.077500
7.576000,-12.615000,-7.312500,-3.080000
7.596000,-13.420000,-7.517500,-3.080000
7.616000,-14.327500,-7.625000,-3.082500
7.636000,-15.275000,-7.665000,-3.097500
7.656000,-16.152500,-7.615000,-3.117500
7.676000,-16.845000,-7.442500,-3.130000
7.696000,-17.425000,-7.185000,-3.147500
7.716000,-17.857500,-6.892500,-3.160000
7.736000,-17.927500,-6.550000,-3.177500
7.756000,-17.732500,-6.132500,-3.187500
7.776000,-17.310000,-5.650000,-3.187500
7.796000,-16.680000,-5.170000,-3.160000
7.816000,-15.822500,-4.747500,-3.105000
7.836000,-14.742500,-4.380000,-3.025000
7.856000,-13.470000,-4.105000,-2.905000
7.876000,-12.137500,-3.977500,-2.747500
7.896000,-10.895000,-4.005000,-2.565000
7.916000,-9.780000,-4.125000,-2.352500
7.936000,-8.785000,-4.287500,-2.102500
7.956000,-7.940000,-4.437500,-1.810000
7.976000,-7.247500,-4.502500,-1.480000
7.996000,-6.750000,-4.427500,-1.117500
