accel_time_list,accel_x_list,accel_y_list,accel_z_list
0.762,6.497863,-6.449979,-3.799598
0.782,6.490681,-6.481104,-3.78643
0.802,6.515423,-6.468329,-3.807582
0.822,6.528399,-6.449365,-3.81936
0.842,6.528996,-6.456678,-3.834575
0.862,6.5258,-6.482728,-3.832334
0.882,6.527625,-6.515751,-3.833473
0.902,6.535883,-6.532137,-3.843915
0.922,6.538312,-6.548626,-3.842447
0.942,6.547209,-6.554116,-3.854703
0.962,6.559726,-6.542187,-3.85339
0.982,6.564362,-6.525619,-3.844695
1.002,6.554055,-6.526623,-3.842878
1.022,6.543839,-6.527999,-3.832912
1.042,6.540115,-6.524851,-3.816413
1.062,6.53791,-6.524508,-3.817012
1.082,6.532142,-6.531295,-3.832278
1.102,6.519786,-6.533712,-3.833129
1.122,6.501728,-6.514293,-3.820299
1.142,6.485436,-6.500155,-3.817319
1.162,6.478409,-6.495657,-3.824067
1.182,6.473897,-6.504028,-3.831634
1.202,6.468722,-6.52614,-3.843605
1.222,6.467828,-6.541708,-3.854089
1.242,6.467395,-6.543145,-3.862092
1.262,6.462886,-6.53864,-3.870514
1.282,6.455831,-6.532568,-3.875699
1.302,6.450839,-6.525445,-3.880251
1.322,6.449885,-6.515854,-3.879014
1.342,6.447292,-6.505583,-3.873954
1.362,6.442353,-6.497868,-3.87127
1.382,6.438712,-6.492556,-3.869671
1.402,6.437803,-6.48936,-3.870688
1.422,6.43867,-6.490198,-3.873799
1.442,6.440809,-6.492394,-3.883157
1.462,6.444386,-6.4983,-3.894394
1.482,6.447507,-6.503756,-3.900334
1.502,6.448409,-6.506065,-3.903633
1.522,6.45114,-6.507051,-3.903604
1.542,6.455812,-6.508913,-3.904254
1.562,6.459543,-6.509478,-3.904811
1.582,6.460242,-6.511132,-3.903877
1.602,6.459031,-6.512707,-3.902188
1.622,6.457542,-6.510846,-3.899402
1.642,6.455249,-6.505997,-3.895702
1.662,6.449916,-6.496522,-3.893928
1.682,6.444176,-6.496024,-3.894431
1.702,6.442354,-6.506958,-3.902299
1.722,6.444772,-6.525561,-3.909209
1.742,6.443894,-6.535621,-3.909863
1.762,6.440978,-6.534743,-3.914034
1.782,6.441204,-6.537968,-3.915331
1.802,6.442256,-6.541022,-3.916811
1.822,6.439714,-6.542001,-3.915758
1.842,6.43574,-6.540744,-3.915194
1.862,6.432169,-6.541152,-3.917039
1.882,6.429371,-6.54106,-3.918602
1.902,6.42428,-6.536246,-3.918017
1.922,6.416496,-6.528601,-3.917955
1.942,6.407537,-6.527259,-3.918722
1.962,6.401789,-6.533712,-3.923726
1.982,6.397711,-6.54422,-3.927136
2.002,6.39356,-6.546996,-3.925626
2.022,6.387846,-6.544027,-3.921365
2.042,6.381094,-6.543624,-3.917153
2.062,6.375718,-6.550071,-3.915031
2.082,6.370645,-6.558171,-3.914202
2.102,6.365154,-6.564055,-3.913583
2.122,6.357892,-6.568808,-3.911533
2.142,6.351146,-6.571991,-3.910256
2.162,6.345551,-6.578758,-3.911059
2.182,6.339387,-6.58744,-3.914546
2.202,6.337342,-6.587496,-3.912762
2.222,6.336925,-6.58467,-3.910213
2.242,6.337379,-6.587541,-3.908768
2.262,6.337686,-6.593694,-3.907823
2.282,6.337315,-6.597324,-3.908664
2.302,6.336953,-6.59744,-3.907166
2.322,6.337384,-6.596891,-3.904975
2.342,6.336999,-6.599492,-3.903937
2.362,6.335291,-6.60322,-3.901902
2.382,6.333563,-6.605934,-3.900498
2.402,6.33228,-6.606845,-3.897794
2.422,6.329865,-6.608326,-3.895902
2.442,6.326265,-6.610848,-3.89542
2.462,6.323644,-6.612458,-3.895097
2.482,6.321558,-6.613668,-3.894404
2.502,6.319285,-6.615832,-3.894874
2.522,6.318314,-6.619066,-3.89539
2.542,6.3184,-6.622726,-3.894606
2.562,6.317802,-6.624024,-3.89201
2.582,6.315926,-6.623031,-3.88675
2.602,6.313227,-6.620674,-3.88003
2.622,6.311742,-6.619573,-3.875458
2.642,6.312335,-6.623015,-3.876139
2.662,6.311485,-6.631943,-3.880883
2.682,6.307716,-6.638573,-3.88496
2.702,6.303169,-6.639642,-3.887754
2.722,6.298861,-6.641011,-3.892344
2.742,6.293401,-6.644461,-3.897036
3.129,6.290891,-6.649778,-3.900027
3.149,6.289305,-6.652583,-3.902631
3.169,6.28724,-6.653167,-3.905237
3.189,6.284329,-6.653893,-3.907042
3.209,6.281772,-6.656575,-3.909907
3.229,6.278665,-6.662123,-3.912425
3.249,6.274573,-6.66655,-3.910976
3.269,6.269542,-6.66719,-3.906056
3.289,6.26449,-6.666328,-3.900486
3.309,6.257813,-6.666664,-3.896945
3.329,6.249239,-6.670597,-3.899755
3.353,6.245847,-6.67909,-3.905002
3.373,6.24405,-6.682385,-3.91046
3.393,6.243093,-6.687113,-3.916582
3.413,6.243653,-6.691924,-3.920583
3.433,6.245022,-6.693359,-3.921289
3.453,6.245683,-6.694996,-3.921796
3.473,6.246505,-6.700614,-3.925243
3.493,6.247702,-6.711084,-3.928344
3.513,6.248049,-6.718194,-3.925835
3.533,6.24832,-6.720563,-3.922418
3.553,6.248278,-6.724082,-3.92028
3.573,6.246655,-6.728787,-3.91802
3.593,6.245217,-6.731841,-3.915471
3.613,6.244535,-6.734817,-3.912229
3.633,6.243286,-6.739199,-3.908948
3.653,6.243222,-6.737982,-3.905245
3.673,6.242632,-6.734408,-3.901387
3.693,6.242407,-6.732378,-3.895557
3.713,6.242663,-6.732522,-3.890096
3.733,6.242845,-6.733983,-3.885002
3.753,6.243934,-6.738325,-3.881969
3.773,6.24633,-6.744348,-3.880379
3.793,6.249563,-6.747797,-3.876148
3.813,6.253531,-6.74422,-3.868439
3.833,6.257267,-6.738381,-3.86131
3.853,6.261444,-6.73588,-3.856
3.873,6.264766,-6.735942,-3.85072
3.893,6.268054,-6.73665,-3.846546
3.913,6.271142,-6.730694,-3.838463
3.933,6.274966,-6.718167,-3.826965
3.953,6.279182,-6.705525,-3.813523
3.973,6.284266,-6.694111,-3.799474
3.993,6.289681,-6.680297,-3.783745
4.013,6.29423,-6.665472,-3.765444
4.033,6.298971,-6.652902,-3.74747
4.053,6.306012,-6.644911,-3.733195
4.073,6.315711,-6.640544,-3.72196
4.093,6.327589,-6.635526,-3.71146
4.113,6.342316,-6.627182,-3.701735
4.133,6.361397,-6.616767,-3.694381
4.153,6.382178,-6.607198,-3.687653
4.173,6.402202,-6.601532,-3.682212
4.193,6.421378,-6.600088,-3.679028
4.213,6.438591,-6.602921,-3.679516
4.233,6.452256,-6.60369,-3.674851
4.253,6.464085,-6.601434,-3.666928
4.273,6.474502,-6.597957,-3.658774
4.293,6.485845,-6.594729,-3.650079
4.313,6.494536,-6.592443,-3.641686
4.333,6.502135,-6.589295,-3.632491
4.353,6.509394,-6.585005,-3.623029
4.373,6.51651,-6.5798,-3.613614
4.393,6.523362,-6.574886,-3.604317
4.413,6.529428,-6.568993,-3.594155
4.433,6.535361,-6.561889,-3.583328
4.453,6.541523,-6.557753,-3.574143
4.473,6.548915,-6.557274,-3.565695
4.493,6.554845,-6.558787,-3.556159
4.513,6.556909,-6.558441,-3.544779
4.533,6.556366,-6.554483,-3.531406
4.553,6.557912,-6.546759,-3.51649
4.573,6.561573,-6.540572,-3.500575
4.593,6.566586,-6.538349,-3.48489
4.613,6.572627,-6.538352,-3.472116
4.633,6.580211,-6.537516,-3.461743
4.653,6.589371,-6.535491,-3.453175
4.673,6.60002,-6.533271,-3.444644
4.693,6.61231,-6.531241,-3.435217
4.713,6.624453,-6.529782,-3.426004
4.733,6.636523,-6.527548,-3.419086
4.753,6.648807,-6.525192,-3.414775
4.773,6.661352,-6.523961,-3.411009
4.793,6.673005,-6.522263,-3.405725
4.813,6.683559,-6.517877,-3.398387
4.833,6.693985,-6.512123,-3.391626
4.853,6.703994,-6.508078,-3.386392
4.873,6.713808,-6.504672,-3.381977
4.893,6.723668,-6.499504,-3.377366
4.913,6.733356,-6.49343,-3.371581
4.933,6.742685,-6.48835,-3.365925
4.953,6.75125,-6.483872,-3.35999
4.973,6.759107,-6.4792,-3.353684
4.993,6.766766,-6.47376,-3.346268
5.013,6.774013,-6.467273,-3.337825
5.033,6.780828,-6.462168,-3.328939
5.053,6.787168,-6.459245,-3.32122
5.073,6.792918,-6.458027,-3.315422
5.093,6.799425,-6.456846,-3.310639
5.113,6.807111,-6.453736,-3.306478
5.254,6.814457,-6.447857,-3.302599
5.274,6.822161,-6.442683,-3.299309
5.294,6.829597,-6.438183,-3.297177
5.314,6.836766,-6.435021,-3.295737
5.334,6.842786,-6.432465,-3.293282
5.354,6.847884,-6.427588,-3.289199
5.374,6.853793,-6.420797,-3.284343
5.394,6.85926,-6.415439,-3.279176
5.414,6.863642,-6.415712,-3.276719
5.434,6.866449,-6.420389,-3.276992
5.454,6.870496,-6.423534,-3.278579
5.474,6.873881,-6.421213,-3.27833
5.494,6.875891,-6.41518,-3.275187
5.514,6.878623,-6.409327,-3.271429
5.534,6.88159,-6.408033,-3.269121
5.554,6.885654,-6.409889,-3.267722
5.574,6.887187,-6.413067,-3.266385
5.594,6.886598,-6.418368,-3.266594
5.614,6.890013,-6.41902,-3.264741
5.634,6.891885,-6.411046,-3.261973
5.654,6.892781,-6.405449,-3.264189
5.674,6.896062,-6.412646,-3.27268
5.694,6.90058,-6.423746,-3.279768
5.714,6.903831,-6.427192,-3.280921
5.734,6.903339,-6.421985,-3.278206
5.754,6.903283,-6.415801,-3.272
5.774,6.904951,-6.410229,-3.266238
5.794,6.90471,-6.402654,-3.261421
5.814,6.904688,-6.39525,-3.258447
5.834,6.90129,-6.391535,-3.257011
5.854,6.894263,-6.390324,-3.255326
5.874,6.888311,-6.391926,-3.253945
5.894,6.883665,-6.392938,-3.254422
5.914,6.880932,-6.390348,-3.257096
5.934,6.88007,-6.383786,-3.261731
5.954,6.880342,-6.377481,-3.26802
5.974,6.882359,-6.374614,-3.274149
5.994,6.887013,-6.372926,-3.278231
6.014,6.892699,-6.36886,-3.279997
6.034,6.898806,-6.363375,-3.281601
6.054,6.906744,-6.358974,-3.284148
6.074,6.916469,-6.355837,-3.28777
6.094,6.926936,-6.352038,-3.293128
6.114,6.936842,-6.346338,-3.298647
6.134,6.945908,-6.340599,-3.303298
6.154,6.954763,-6.334725,-3.307758
6.174,6.962812,-6.328001,-3.312485
6.194,6.970038,-6.320913,-3.316446
6.214,6.976641,-6.314853,-3.321493
6.234,6.982579,-6.310315,-3.325915
6.254,6.987548,-6.306564,-3.330963
6.274,6.991294,-6.301677,-3.335985
6.294,6.99347,-6.295427,-3.340214
6.314,6.99371,-6.289311,-3.343491
6.334,6.99342,-6.283615,-3.347238
6.354,6.992869,-6.277761,-3.350924
6.374,6.987895,-6.284559,-3.359193
6.394,6.990106,-6.279342,-3.363693
6.414,6.989493,-6.275781,-3.36494
6.434,6.992526,-6.275847,-3.36548
6.454,7.000676,-6.259345,-3.365128
6.474,6.99955,-6.250836,-3.364062
6.494,7.001069,-6.243921,-3.363461
6.514,7.001759,-6.244737,-3.364758
6.534,7.003448,-6.243365,-3.367359
6.554,7.00354,-6.240691,-3.369503
6.574,7.006623,-6.241587,-3.371505
6.594,7.006683,-6.240678,-3.37399
6.614,7.004324,-6.247942,-3.376235
6.634,7.006897,-6.2497,-3.379966
6.654,7.007601,-6.247584,-3.382319
6.674,7.007316,-6.247118,-3.384313
6.694,7.006962,-6.24534,-3.386574
6.714,7.006947,-6.243604,-3.389723
6.734,7.008153,-6.243585,-3.392577
6.754,7.010376,-6.249575,-3.395857
6.774,7.010926,-6.245283,-3.396375
6.794,7.011781,-6.241991,-3.396361
6.814,7.013226,-6.24261,-3.398478
6.834,7.013794,-6.240518,-3.399759
6.854,7.014117,-6.237249,-3.400693
6.874,7.013504,-6.235211,-3.401881
6.894,7.013231,-6.233145,-3.403679
6.914,7.01368,-6.229543,-3.40546
6.934,7.01422,-6.227246,-3.407941
6.954,7.014659,-6.226744,-3.410277
6.974,7.015405,-6.23501,-3.412064
6.994,7.016837,-6.218772,-3.411605
7.014,7.017872,-6.219648,-3.414647
7.034,7.018538,-6.219054,-3.417635
7.054,7.018503,-6.219328,-3.421143
7.074,7.01909,-6.218331,-3.424329
7.094,7.019384,-6.2172,-3.42655
7.114,7.019053,-6.217612,-3.428077
7.134,7.019348,-6.216321,-3.429973
7.154,7.019664,-6.213773,-3.431754
7.174,7.020168,-6.212017,-3.432488
7.194,7.02014,-6.212385,-3.43422
7.214,7.020185,-6.212008,-3.434952
7.234,7.019606,-6.212449,-3.434553
