gyro_time_list,gyro_x_list,gyro_y_list,gyro_z_list
0.010000,-0.201000,0.157000,0.227000
0.030000,-0.170000,0.180000,0.248000
0.050000,-0.143000,0.210000,0.265000
0.070000,-0.156000,0.236000,0.286000
0.090000,-0.195000,0.256000,0.310000
0.110000,-0.237000,0.278000,0.337000
0.130000,-0.287000,0.302000,0.367000
0.150000,-0.345000,0.330000,0.409000
0.170000,-0.402000,0.360000,0.461000
0.190000,-0.468000,0.400000,0.528000
0.210000,-0.529000,0.467000,0.599000
0.230000,-0.582000,0.550000,0.687000
0.250000,-0.630000,0.644000,0.787000
0.270000,-0.671000,0.748000,0.890000
0.290000,-0.682000,0.854000,1.001000
0.310000,-0.670000,0.961000,1.120000
0.330000,-0.655000,1.076000,1.241000
0.350000,-0.655000,1.196000,1.355000
0.370000,-0.689000,1.313000,1.458000
0.390000,-0.758000,1.415000,1.549000
0.410000,-0.847000,1.503000,1.635000
0.430000,-0.943000,1.584000,1.715000
0.450000,-1.045000,1.656000,1.788000
0.470000,-1.151000,1.716000,1.850000
0.490000,-1.257000,1.758000,1.904000
0.510000,-1.353000,1.779000,1.947000
0.530000,-1.433000,1.777000,1.980000
0.550000,-1.492000,1.757000,1.996000
0.570000,-1.532000,1.721000,1.998000
0.590000,-1.557000,1.677000,1.981000
0.610000,-1.570000,1.627000,1.949000
0.630000,-1.571000,1.572000,1.906000
0.650000,-1.569000,1.512000,1.855000
0.670000,-1.573000,1.448000,1.799000
0.690000,-1.586000,1.382000,1.738000
0.710000,-1.603000,1.317000,1.676000
0.730000,-1.620000,1.253000,1.615000
0.750000,-1.632000,1.191000,1.555000
0.770000,-1.634000,1.135000,1.496000
0.790000,-1.620000,1.082000,1.438000
0.810000,-1.592000,1.033000,1.381000
0.830000,-1.551000,0.989000,1.323000
0.850000,-1.500000,0.948000,1.263000
0.870000,-1.442000,0.908000,1.201000
0.890000,-1.379000,0.868000,1.135000
0.910000,-1.314000,0.829000,1.066000
0.930000,-1.247000,0.789000,0.994000
0.950000,-1.177000,0.747000,0.921000
0.970000,-1.104000,0.703000,0.846000
0.990000,-1.033000,0.657000,0.769000
1.010000,-0.971000,0.609000,0.688000
1.030000,-0.918000,0.559000,0.604000
1.050000,-0.873000,0.504000,0.517000
1.070000,-0.834000,0.447000,0.428000
1.090000,-0.794000,0.385000,0.340000
1.110000,-0.745000,0.316000,0.253000
1.130000,-0.692000,0.242000,0.169000
1.150000,-0.638000,0.161000,0.086000
1.170000,-0.584000,0.073000,0.006000
1.190000,-0.517000,-0.020000,-0.072000
1.210000,-0.433000,-0.117000,-0.146000
1.230000,-0.341000,-0.222000,-0.214000
1.250000,-0.253000,-0.333000,-0.279000
1.270000,-0.169000,-0.447000,-0.340000
1.290000,-0.094000,-0.560000,-0.396000
1.310000,-0.035000,-0.666000,-0.447000
1.330000,0.017000,-0.762000,-0.490000
1.350000,0.069000,-0.845000,-0.522000
1.370000,0.118000,-0.911000,-0.544000
1.390000,0.162000,-0.959000,-0.560000
1.410000,0.203000,-0.991000,-0.569000
1.430000,0.236000,-1.015000,-0.576000
1.450000,0.258000,-1.041000,-0.582000
1.470000,0.270000,-1.070000,-0.592000
1.490000,0.278000,-1.099000,-0.609000
1.510000,0.291000,-1.122000,-0.632000
1.530000,0.312000,-1.135000,-0.656000
1.550000,0.335000,-1.140000,-0.680000
1.570000,0.352000,-1.134000,-0.699000
1.590000,0.359000,-1.119000,-0.710000
1.610000,0.357000,-1.100000,-0.713000
1.630000,0.350000,-1.070000,-0.708000
1.650000,0.333000,-1.021000,-0.698000
1.670000,0.310000,-0.944000,-0.675000
1.690000,0.277000,-0.842000,-0.633000
1.710000,0.217000,-0.729000,-0.577000
1.730000,0.183000,-0.588000,-0.492000
1.750000,0.167000,-0.366000,-0.356000
1.770000,0.080000,-0.138000,-0.217000
1.790000,-0.070000,-0.376000,-0.221000
1.810000,0.045000,-0.622000,-0.365000
1.830000,0.082000,-0.870000,-0.380000
1.850000,0.175000,-0.816000,-0.516000
1.870000,0.348000,-0.649000,-0.648000
1.890000,0.214000,-0.588000,-0.684000
1.910000,-0.007000,-0.547000,-0.670000
1.930000,-0.133000,-0.540000,-0.646000
1.950000,-0.162000,-0.492000,-0.606000
1.970000,-0.082000,-0.456000,-0.577000
1.990000,-0.048000,-0.424000,-0.553000
2.010000,-0.084000,-0.386000,-0.534000
2.030000,-0.117000,-0.353000,-0.519000
2.050000,-0.152000,-0.325000,-0.500000
2.070000,-0.186000,-0.290000,-0.474000
2.090000,-0.189000,-0.254000,-0.447000
2.110000,-0.181000,-0.228000,-0.426000
2.130000,-0.179000,-0.209000,-0.408000
2.150000,-0.179000,-0.191000,-0.392000
2.170000,-0.176000,-0.178000,-0.378000
2.190000,-0.170000,-0.168000,-0.366000
2.210000,-0.162000,-0.159000,-0.355000
2.230000,-0.155000,-0.151000,-0.344000
2.250000,-0.150000,-0.147000,-0.336000
2.270000,-0.143000,-0.149000,-0.330000
2.290000,-0.132000,-0.151000,-0.325000
2.310000,-0.124000,-0.151000,-0.319000
2.330000,-0.122000,-0.152000,-0.314000
2.350000,-0.120000,-0.153000,-0.308000
2.370000,-0.121000,-0.153000,-0.303000
2.390000,-0.117000,-0.153000,-0.299000
2.410000,-0.111000,-0.151000,-0.294000
2.430000,-0.106000,-0.149000,-0.288000
2.450000,-0.104000,-0.146000,-0.282000
2.470000,-0.103000,-0.142000,-0.275000
2.490000,-0.102000,-0.138000,-0.269000
2.510000,-0.100000,-0.134000,-0.263000
2.530000,-0.098000,-0.130000,-0.257000
2.550000,-0.098000,-0.127000,-0.252000
2.570000,-0.097000,-0.124000,-0.247000
2.590000,-0.096000,-0.121000,-0.242000
2.610000,-0.095000,-0.117000,-0.236000
2.630000,-0.094000,-0.113000,-0.231000
2.650000,-0.092000,-0.109000,-0.225000
2.670000,-0.092000,-0.105000,-0.221000
2.690000,-0.091000,-0.102000,-0.216000
2.710000,-0.090000,-0.099000,-0.212000
2.730000,-0.090000,-0.096000,-0.207000
2.750000,-0.089000,-0.093000,-0.204000
2.770000,-0.089000,-0.091000,-0.200000
2.790000,-0.088000,-0.088000,-0.196000
2.810000,-0.087000,-0.086000,-0.192000
2.830000,-0.086000,-0.084000,-0.189000
2.850000,-0.086000,-0.082000,-0.186000
2.870000,-0.086000,-0.080000,-0.183000
2.890000,-0.085000,-0.078000,-0.180000
2.910000,-0.084000,-0.076000,-0.177000
2.930000,-0.083000,-0.075000,-0.174000
2.950000,-0.083000,-0.073000,-0.171000
2.970000,-0.082000,-0.071000,-0.168000
2.990000,-0.081000,-0.070000,-0.166000
3.010000,-0.081000,-0.068000,-0.163000
3.030000,-0.080000,-0.066000,-0.160000
3.050000,-0.080000,-0.065000,-0.158000
3.070000,-0.080000,-0.064000,-0.156000
3.090000,-0.079000,-0.063000,-0.154000
3.110000,-0.079000,-0.061000,-0.151000
3.130000,-0.079000,-0.060000,-0.149000
3.150000,-0.079000,-0.059000,-0.147000
3.170000,-0.078000,-0.058000,-0.145000
3.190000,-0.078000,-0.057000,-0.143000
3.210000,-0.077000,-0.056000,-0.141000
3.230000,-0.077000,-0.055000,-0.140000
3.250000,-0.077000,-0.054000,-0.138000
3.270000,-0.077000,-0.053000,-0.136000
3.290000,-0.076000,-0.052000,-0.134000
3.310000,-0.076000,-0.051000,-0.133000
3.330000,-0.076000,-0.050000,-0.131000
3.350000,-0.075000,-0.049000,-0.130000
3.370000,-0.075000,-0.048000,-0.128000
3.390000,-0.075000,-0.047000,-0.127000
3.410000,-0.075000,-0.046000,-0.125000
3.430000,-0.075000,-0.046000,-0.124000
3.450000,-0.075000,-0.045000,-0.122000
3.470000,-0.074000,-0.044000,-0.121000
3.490000,-0.074000,-0.043000,-0.120000
3.510000,-0.074000,-0.042000,-0.118000
3.530000,-0.073000,-0.041000,-0.117000
3.550000,-0.073000,-0.041000,-0.116000
3.570000,-0.073000,-0.040000,-0.114000
3.590000,-0.073000,-0.039000,-0.113000
3.610000,-0.072000,-0.039000,-0.112000
3.630000,-0.072000,-0.038000,-0.111000
3.650000,-0.072000,-0.038000,-0.110000
3.670000,-0.072000,-0.038000,-0.109000
3.690000,-0.072000,-0.038000,-0.108000
3.710000,-0.072000,-0.037000,-0.107000
3.730000,-0.072000,-0.038000,-0.107000
3.750000,-0.072000,-0.039000,-0.106000
3.770000,-0.071000,-0.041000,-0.106000
3.790000,-0.070000,-0.042000,-0.105000
3.810000,-0.068000,-0.042000,-0.104000
3.830000,-0.067000,-0.043000,-0.103000
3.850000,-0.066000,-0.043000,-0.102000
3.870000,-0.065000,-0.044000,-0.101000
3.890000,-0.063000,-0.044000,-0.100000
3.910000,-0.061000,-0.044000,-0.099000
3.930000,-0.060000,-0.044000,-0.098000
3.950000,-0.058000,-0.045000,-0.097000
3.970000,-0.058000,-0.046000,-0.096000
3.990000,-0.057000,-0.047000,-0.095000
4.010000,-0.056000,-0.048000,-0.094000
4.030000,-0.055000,-0.048000,-0.093000
4.050000,-0.053000,-0.049000,-0.093000
4.070000,-0.053000,-0.049000,-0.092000
4.090000,-0.052000,-0.050000,-0.091000
4.110000,-0.051000,-0.050000,-0.091000
4.130000,-0.050000,-0.049000,-0.090000
4.150000,-0.051000,-0.049000,-0.089000
4.170000,-0.051000,-0.048000,-0.088000
4.190000,-0.051000,-0.047000,-0.087000
4.210000,-0.051000,-0.046000,-0.086000
4.230000,-0.052000,-0.045000,-0.085000
4.250000,-0.051000,-0.045000,-0.084000
4.270000,-0.051000,-0.044000,-0.083000
4.290000,-0.051000,-0.043000,-0.082000
4.310000,-0.051000,-0.042000,-0.081000
4.330000,-0.050000,-0.042000,-0.081000
4.350000,-0.049000,-0.041000,-0.080000
4.370000,-0.049000,-0.041000,-0.079000
4.390000,-0.048000,-0.041000,-0.078000
4.410000,-0.047000,-0.041000,-0.078000
4.430000,-0.046000,-0.041000,-0.077000
4.450000,-0.045000,-0.042000,-0.076000
4.470000,-0.045000,-0.043000,-0.075000
4.490000,-0.043000,-0.044000,-0.074000
4.510000,-0.042000,-0.045000,-0.073000
4.530000,-0.042000,-0.047000,-0.073000
4.550000,-0.041000,-0.049000,-0.072000
4.570000,-0.039000,-0.052000,-0.072000
4.590000,-0.037000,-0.052000,-0.072000
4.610000,-0.037000,-0.052000,-0.071000
4.630000,-0.037000,-0.052000,-0.071000
4.650000,-0.037000,-0.050000,-0.070000
4.670000,-0.038000,-0.048000,-0.069000
4.690000,-0.039000,-0.047000,-0.068000
4.710000,-0.037000,-0.046000,-0.067000
4.730000,-0.035000,-0.043000,-0.066000
4.750000,-0.034000,-0.040000,-0.065000
4.770000,-0.032000,-0.037000,-0.064000
4.790000,-0.031000,-0.034000,-0.064000
4.810000,-0.028000,-0.031000,-0.067000
4.830000,-0.024000,-0.028000,-0.072000
4.850000,-0.023000,-0.026000,-0.075000
4.870000,-0.021000,-0.026000,-0.078000
4.890000,-0.015000,-0.025000,-0.079000
4.910000,-0.012000,-0.025000,-0.078000
4.930000,-0.014000,-0.024000,-0.077000
4.950000,-0.015000,-0.024000,-0.076000
4.970000,-0.011000,-0.024000,-0.076000
4.990000,-0.009000,-0.025000,-0.076000
5.010000,-0.013000,-0.026000,-0.076000
5.030000,-0.016000,-0.024000,-0.076000
5.050000,-0.016000,-0.022000,-0.075000
5.070000,-0.018000,-0.020000,-0.073000
5.090000,-0.022000,-0.019000,-0.070000
5.110000,-0.026000,-0.018000,-0.066000
5.130000,-0.030000,-0.016000,-0.063000
5.150000,-0.034000,-0.014000,-0.060000
5.170000,-0.031000,-0.014000,-0.057000
5.190000,-0.024000,-0.012000,-0.051000
5.210000,-0.018000,-0.009000,-0.045000
5.230000,-0.015000,-0.004000,-0.039000
5.250000,-0.011000,0.000000,-0.031000
5.270000,-0.006000,0.003000,-0.024000
5.290000,0.000000,0.007000,-0.016000
5.310000,0.007000,0.013000,-0.009000
5.330000,0.014000,0.020000,-0.001000
5.350000,0.018000,0.027000,0.006000
5.370000,0.020000,0.034000,0.013000
5.390000,0.020000,0.042000,0.019000
5.410000,0.017000,0.049000,0.024000
5.430000,0.012000,0.055000,0.027000
5.450000,0.008000,0.059000,0.030000
5.470000,0.001000,0.060000,0.031000
5.490000,-0.012000,0.061000,0.031000
5.510000,-0.028000,0.060000,0.030000
5.530000,-0.043000,0.056000,0.027000
5.550000,-0.056000,0.053000,0.018000
5.570000,-0.065000,0.052000,0.009000
5.590000,-0.067000,0.051000,0.000000
5.610000,-0.061000,0.048000,-0.010000
5.630000,-0.058000,0.043000,-0.019000
5.650000,-0.064000,0.040000,-0.029000
5.670000,-0.078000,0.034000,-0.038000
5.690000,-0.090000,0.027000,-0.047000
5.710000,-0.095000,0.024000,-0.053000
5.730000,-0.095000,0.022000,-0.057000
5.750000,-0.086000,0.021000,-0.060000
5.770000,-0.061000,0.019000,-0.063000
5.790000,-0.024000,0.017000,-0.062000
5.810000,0.013000,0.012000,-0.061000
5.830000,0.041000,0.009000,-0.063000
5.850000,0.057000,0.009000,-0.062000
5.870000,0.061000,0.009000,-0.065000
5.890000,0.063000,0.009000,-0.064000
5.910000,0.059000,0.004000,-0.059000
5.930000,0.034000,-0.006000,-0.054000
5.950000,0.000000,-0.018000,-0.053000
5.970000,-0.013000,-0.027000,-0.053000
5.990000,0.002000,-0.032000,-0.054000
6.010000,0.030000,-0.037000,-0.055000
6.030000,0.055000,-0.041000,-0.057000
6.050000,0.066000,-0.044000,-0.059000
6.070000,0.068000,-0.045000,-0.059000
6.090000,0.067000,-0.045000,-0.059000
6.110000,0.067000,-0.045000,-0.058000
6.130000,0.070000,-0.045000,-0.058000
6.150000,0.073000,-0.045000,-0.057000
6.170000,0.077000,-0.045000,-0.056000
6.190000,0.080000,-0.045000,-0.055000
6.210000,0.079000,-0.044000,-0.055000
6.230000,0.077000,-0.044000,-0.055000
6.250000,0.076000,-0.044000,-0.054000
6.270000,0.079000,-0.044000,-0.054000
6.290000,0.081000,-0.044000,-0.054000
6.310000,0.080000,-0.045000,-0.053000
6.330000,0.079000,-0.045000,-0.053000
6.350000,0.078000,-0.045000,-0.053000
6.370000,0.076000,-0.044000,-0.053000
6.390000,0.072000,-0.044000,-0.053000
6.410000,0.069000,-0.044000,-0.052000
6.430000,0.067000,-0.044000,-0.051000
6.450000,0.066000,-0.043000,-0.051000
6.470000,0.064000,-0.042000,-0.051000
6.490000,0.063000,-0.042000,-0.050000
6.510000,0.062000,-0.041000,-0.050000
6.530000,0.060000,-0.041000,-0.049000
6.550000,0.057000,-0.041000,-0.049000
6.570000,0.056000,-0.040000,-0.048000
6.590000,0.055000,-0.040000,-0.048000
6.610000,0.055000,-0.040000,-0.048000
6.630000,0.054000,-0.039000,-0.047000
6.650000,0.052000,-0.038000,-0.047000
6.670000,0.050000,-0.038000,-0.046000
6.690000,0.049000,-0.038000,-0.046000
6.710000,0.049000,-0.037000,-0.046000
6.730000,0.048000,-0.037000,-0.045000
6.750000,0.047000,-0.036000,-0.045000
6.770000,0.045000,-0.035000,-0.044000
6.790000,0.044000,-0.035000,-0.044000
6.810000,0.043000,-0.035000,-0.044000
6.830000,0.042000,-0.034000,-0.043000
6.850000,0.041000,-0.034000,-0.043000
6.870000,0.040000,-0.033000,-0.043000
6.890000,0.039000,-0.033000,-0.042000
6.910000,0.039000,-0.032000,-0.042000
6.930000,0.039000,-0.032000,-0.042000
6.950000,0.037000,-0.031000,-0.042000
6.970000,0.036000,-0.031000,-0.041000
6.990000,0.035000,-0.031000,-0.041000
7.010000,0.034000,-0.030000,-0.041000
7.030000,0.033000,-0.029000,-0.041000
7.050000,0.032000,-0.028000,-0.041000
7.070000,0.031000,-0.028000,-0.041000
7.090000,0.031000,-0.027000,-0.041000
7.110000,0.030000,-0.027000,-0.041000
7.130000,0.029000,-0.026000,-0.040000
7.150000,0.028000,-0.025000,-0.040000
7.170000,0.028000,-0.025000,-0.040000
7.190000,0.027000,-0.024000,-0.040000
7.210000,0.026000,-0.024000,-0.040000
7.230000,0.025000,-0.024000,-0.040000
7.250000,0.025000,-0.024000,-0.039000
7.270000,0.024000,-0.023000,-0.039000
7.290000,0.024000,-0.022000,-0.039000
7.310000,0.023000,-0.022000,-0.039000
7.330000,0.022000,-0.021000,-0.039000
7.350000,0.021000,-0.021000,-0.038000
7.370000,0.021000,-0.021000,-0.038000
7.390000,0.020000,-0.020000,-0.038000
7.410000,0.019000,-0.020000,-0.038000
7.430000,0.018000,-0.020000,-0.038000
7.450000,0.018000,-0.019000,-0.038000
7.470000,0.017000,-0.019000,-0.037000
7.490000,0.016000,-0.018000,-0.037000
7.510000,0.015000,-0.018000,-0.037000
7.530000,0.015000,-0.017000,-0.037000
7.550000,0.014000,-0.017000,-0.037000
7.570000,0.013000,-0.017000,-0.036000
7.590000,0.013000,-0.016000,-0.036000
7.610000,0.012000,-0.016000,-0.036000
7.630000,0.012000,-0.016000,-0.036000
7.650000,0.011000,-0.015000,-0.035000
7.670000,0.010000,-0.015000,-0.035000
7.690000,0.010000,-0.015000,-0.035000
7.710000,0.009000,-0.014000,-0.035000
7.730000,0.008000,-0.014000,-0.035000
7.750000,0.008000,-0.013000,-0.034000
7.770000,0.007000,-0.013000,-0.034000
7.790000,0.007000,-0.013000,-0.034000
7.810000,0.006000,-0.012000,-0.034000
7.830000,0.005000,-0.012000,-0.034000
7.850000,0.004000,-0.012000,-0.034000
7.870000,0.004000,-0.012000,-0.034000
7.890000,0.003000,-0.011000,-0.033000
7.910000,0.003000,-0.010000,-0.033000
7.930000,0.002000,-0.010000,-0.034000
7.950000,0.002000,-0.010000,-0.034000
7.970000,0.001000,-0.009000,-0.033000
7.990000,0.001000,-0.009000,-0.033000
