accel_time_list,accel_x_list,accel_y_list,accel_z_list
0.315000,1.242591,-6.531382,8.815451
0.335000,1.351527,-6.581660,8.711303
0.355000,1.453430,-6.679889,8.554262
0.375000,1.586125,-6.786107,8.350463
0.395000,1.738759,-6.870671,8.149764
0.415000,1.889359,-6.903377,7.970735
0.435000,2.037743,-6.877370,7.808423
0.455000,2.187835,-6.811065,7.661622
0.475000,2.333140,-6.748051,7.532231
0.495000,2.468864,-6.689006,7.431043
0.515000,2.595669,-6.632157,7.356505
0.535000,2.716716,-6.575285,7.310085
0.555000,2.829116,-6.521372,7.282050
0.575000,2.929946,-6.471004,7.268246
0.595000,3.019716,-6.414020,7.262741
0.615000,3.101579,-6.364017,7.265966
0.635000,3.175820,-6.326760,7.270123
0.655000,3.244566,-6.304004,7.276858
0.675000,3.303910,-6.291121,7.294569
0.695000,3.353328,-6.281079,7.323741
0.715000,3.395850,-6.269506,7.354822
0.735000,3.434970,-6.253632,7.386097
0.755000,3.469027,-6.237187,7.422510
0.775000,3.503943,-6.219184,7.462451
0.795000,3.540397,-6.191096,7.499642
0.815000,3.578976,-6.152706,7.529027
0.835000,3.615753,-6.118698,7.549464
0.855000,3.647306,-6.091147,7.568331
0.875000,3.675662,-6.064738,7.588385
0.895000,3.702598,-6.029835,7.612820
0.915000,3.724432,-5.976040,7.633927
0.935000,3.749218,-5.902591,7.649127
0.955000,3.785515,-5.818337,7.651207
0.975000,3.828224,-5.736493,7.645217
0.995000,3.866618,-5.667623,7.642733
1.015000,3.902553,-5.611085,7.640687
1.035000,3.940503,-5.563295,7.635729
1.055000,3.973888,-5.517168,7.620826
1.075000,3.997011,-5.468424,7.596626
1.095000,4.020142,-5.392273,7.571834
1.115000,4.039829,-5.279185,7.547699
1.135000,4.049331,-5.139475,7.515992
1.155000,4.057052,-4.993919,7.458570
1.175000,4.068046,-4.843614,7.376299
1.195000,4.075864,-4.680826,7.278481
1.215000,4.077093,-4.501873,7.163960
1.235000,4.074961,-4.310394,7.034388
1.255000,4.071085,-4.117689,6.881212
1.275000,4.066693,-3.933381,6.710957
1.295000,4.070536,-3.758359,6.536399
1.315000,4.096222,-3.590312,6.367418
1.335000,4.149059,-3.442876,6.206045
1.355000,4.222916,-3.302737,6.051856
1.375000,4.292929,-3.135581,5.917518
1.395000,4.310942,-2.945572,5.782332
1.415000,4.262648,-2.767611,5.592006
1.435000,4.210567,-2.630031,5.334277
1.455000,4.181664,-2.508759,5.100660
1.475000,3.961554,-2.380243,5.016728
1.495000,3.199813,-2.381381,5.090955
1.515000,1.521819,-2.561310,4.729847
1.535000,-0.520575,-3.045432,3.990348
1.555000,-9.467240,-6.435568,7.912106
1.575000,-6.489517,2.609529,-7.611858
1.595000,16.832422,16.927238,12.299549
1.615000,4.960197,15.453033,3.563500
1.635000,-6.619063,3.942237,7.243324
1.655000,-2.898135,-9.607909,5.720188
1.675000,1.670524,-7.163117,7.215703
1.695000,3.806223,-1.046360,8.431399
1.715000,1.891787,1.134826,9.276587
1.735000,-1.287161,-2.199540,8.159916
1.755000,-3.742402,-6.557657,6.833144
1.775000,-2.487103,-8.134679,6.747209
1.795000,-2.308242,-4.976515,7.892568
1.815000,-1.746239,-3.117786,8.612115
1.835000,-1.713315,-4.521726,8.487774
1.855000,-1.753040,-5.498180,8.164440
1.875000,-1.893750,-6.393078,7.957794
1.895000,-1.853562,-6.093008,8.076277
1.915000,-1.783322,-5.628172,8.251907
1.935000,-1.719083,-5.461711,8.338791
1.955000,-1.694396,-5.434232,8.389525
1.975000,-1.646074,-5.446589,8.435268
1.995000,-1.607716,-5.439196,8.482218
2.015000,-1.587176,-5.409048,8.540883
2.035000,-1.562563,-5.378286,8.599801
2.055000,-1.516930,-5.348536,8.647293
2.075000,-1.471993,-5.330032,8.675619
2.095000,-1.434216,-5.321369,8.704255
2.115000,-1.401117,-5.316374,8.729270
2.135000,-1.360682,-5.327047,8.736973
2.155000,-1.314609,-5.365320,8.738032
2.175000,-1.272473,-5.403389,8.743562
2.195000,-1.236726,-5.403405,8.755504
2.215000,-1.190650,-5.400994,8.772845
2.235000,-1.142176,-5.424203,8.777174
2.255000,-1.098402,-5.469316,8.767544
2.275000,-1.069506,-5.517897,8.758756
2.295000,-1.047930,-5.537921,8.761313
2.342000,-1.025629,-5.558995,8.762089
2.362000,-1.007747,-5.562319,8.768821
2.382000,-0.992685,-5.561002,8.774308
2.402000,-0.978705,-5.565363,8.777924
2.422000,-0.966861,-5.581131,8.778543
2.442000,-0.953849,-5.600564,8.776629
2.462000,-0.940194,-5.620781,8.773407
2.482000,-0.928839,-5.633987,8.774560
2.502000,-0.918989,-5.641081,8.777378
2.522000,-0.910466,-5.645798,8.778931
2.542000,-0.902514,-5.650046,8.781317
2.562000,-0.894902,-5.650121,8.785427
2.582000,-0.885852,-5.649151,8.788417
2.602000,-0.877356,-5.651904,8.789680
2.622000,-0.870033,-5.648838,8.794434
2.642000,-0.865154,-5.642065,8.800826
2.662000,-0.857465,-5.642150,8.803546
2.682000,-0.850673,-5.648099,8.804587
2.702000,-0.843238,-5.650460,8.808494
2.722000,-0.837085,-5.658332,8.810592
2.742000,-0.831186,-5.673007,8.809268
2.762000,-0.824905,-5.676969,8.812376
2.782000,-0.818771,-5.678317,8.816406
2.802000,-0.816573,-5.685273,8.817735
2.822000,-0.810690,-5.687849,8.820790
2.842000,-0.804449,-5.678918,8.827545
2.862000,-0.798957,-5.678340,8.830941
2.882000,-0.788821,-5.684805,8.828794
2.902000,-0.785218,-5.671813,8.835984
2.922000,-0.785355,-5.654994,8.849015
2.942000,-0.779329,-5.646603,8.851058
2.962000,-0.772326,-5.651079,8.851351
2.982000,-0.764643,-5.654383,8.855265
3.002000,-0.755502,-5.645041,8.859017
3.022000,-0.749569,-5.634955,8.865361
3.042000,-0.751054,-5.635736,8.869550
3.062000,-0.751188,-5.640371,8.871513
3.082000,-0.744159,-5.624261,8.874096
3.102000,-0.733263,-5.603199,8.881132
3.122000,-0.720343,-5.616029,8.879683
3.142000,-0.715924,-5.632473,8.881029
3.162000,-0.717187,-5.643092,8.886977
3.182000,-0.712791,-5.652755,8.884156
3.202000,-0.709264,-5.660709,8.883051
3.222000,-0.700068,-5.652986,8.885176
3.242000,-0.693864,-5.645511,8.887820
3.262000,-0.684183,-5.643806,8.883686
3.282000,-0.678942,-5.660858,8.876735
3.302000,-0.675355,-5.683224,8.870564
3.322000,-0.666597,-5.700777,8.859742
3.342000,-0.646588,-5.714549,8.838167
3.362000,-0.635273,-5.770195,8.811966
3.382000,-0.622680,-5.804901,8.791308
3.402000,-0.607118,-5.816339,8.776830
3.422000,-0.591243,-5.847775,8.756858
3.442000,-0.581281,-5.891307,8.733123
3.462000,-0.574399,-5.899835,8.725587
3.482000,-0.570453,-5.893156,8.727860
3.502000,-0.568094,-5.910171,8.721289
3.522000,-0.557261,-5.931907,8.706371
3.542000,-0.547349,-5.950582,8.692126
3.562000,-0.539700,-5.962332,8.685601
3.582000,-0.531923,-5.974885,8.675610
3.602000,-0.522620,-5.981966,8.669107
3.622000,-0.517610,-5.996402,8.661681
3.642000,-0.509107,-6.010652,8.651242
3.662000,-0.499834,-6.025476,8.642344
3.682000,-0.491571,-6.040939,8.634347
3.702000,-0.484235,-6.055428,8.625833
3.722000,-0.476861,-6.067997,8.618021
3.742000,-0.471785,-6.078116,8.612404
3.762000,-0.466336,-6.085557,8.608844
3.782000,-0.461596,-6.093722,8.604977
3.802000,-0.457043,-6.097604,8.602247
3.822000,-0.452996,-6.100740,8.599752
3.842000,-0.447202,-6.104635,8.598031
3.862000,-0.442616,-6.109164,8.597229
3.882000,-0.439699,-6.110229,8.596615
3.902000,-0.436446,-6.113310,8.595597
3.922000,-0.431151,-6.120170,8.592978
3.942000,-0.426096,-6.122742,8.592431
3.962000,-0.422687,-6.121756,8.593056
3.982000,-0.419017,-6.123469,8.593347
4.002000,-0.415937,-6.127017,8.592813
4.022000,-0.413458,-6.127988,8.593308
4.042000,-0.410896,-6.126889,8.593975
4.062000,-0.406181,-6.124538,8.594500
4.082000,-0.402868,-6.128009,8.593925
4.102000,-0.400559,-6.130617,8.593612
4.122000,-0.399047,-6.129330,8.595366
4.142000,-0.396487,-6.126359,8.597678
4.162000,-0.393822,-6.127127,8.598263
4.182000,-0.390904,-6.129640,8.597990
4.202000,-0.388289,-6.130798,8.597674
4.222000,-0.386295,-6.129463,8.598846
4.242000,-0.384189,-6.127533,8.600965
4.262000,-0.381976,-6.127255,8.602344
4.282000,-0.379730,-6.128925,8.602535
4.302000,-0.378101,-6.129375,8.603251
4.322000,-0.375949,-6.127028,8.604559
4.364000,-0.373434,-6.128730,8.604561
4.384000,-0.371687,-6.128402,8.605496
4.404000,-0.370125,-6.127878,8.606614
4.424000,-0.368076,-6.127314,8.607051
4.444000,-0.365472,-6.129196,8.607076
4.464000,-0.363398,-6.130574,8.607460
4.484000,-0.361535,-6.129291,8.608990
4.504000,-0.359955,-6.128854,8.609834
4.524000,-0.357505,-6.129887,8.609615
4.544000,-0.354792,-6.131915,8.608825
4.564000,-0.352106,-6.131361,8.609622
4.584000,-0.350332,-6.129352,8.611968
4.604000,-0.348050,-6.130523,8.612303
4.624000,-0.345838,-6.132592,8.612371
4.644000,-0.344008,-6.131815,8.613229
4.664000,-0.341502,-6.130280,8.614556
4.684000,-0.339164,-6.129384,8.615727
4.704000,-0.337209,-6.129333,8.616719
4.724000,-0.335872,-6.128398,8.617749
4.744000,-0.334141,-6.127879,8.618649
4.764000,-0.332045,-6.125689,8.620401
4.784000,-0.329754,-6.123329,8.622519
4.804000,-0.328420,-6.124417,8.623323
4.824000,-0.327218,-6.124752,8.624215
4.844000,-0.326700,-6.124795,8.625720
4.864000,-0.324175,-6.123809,8.627330
4.884000,-0.321819,-6.121397,8.629067
4.904000,-0.320301,-6.120900,8.630500
4.924000,-0.318103,-6.121342,8.631463
4.944000,-0.315856,-6.120247,8.632872
4.964000,-0.314421,-6.118636,8.634530
4.984000,-0.313240,-6.117832,8.636100
5.004000,-0.311808,-6.118017,8.637702
5.024000,-0.310844,-6.120259,8.638307
5.044000,-0.308550,-6.118504,8.639503
5.064000,-0.307069,-6.116695,8.641526
5.084000,-0.303519,-6.113923,8.643146
5.104000,-0.300987,-6.111370,8.644677
5.124000,-0.298982,-6.110566,8.645762
5.144000,-0.297285,-6.111829,8.646382
5.164000,-0.295222,-6.109872,8.648456
5.184000,-0.292342,-6.105061,8.650867
5.204000,-0.289897,-6.102572,8.652705
5.224000,-0.288483,-6.102886,8.653638
5.244000,-0.286891,-6.102622,8.655088
5.264000,-0.286320,-6.102145,8.656764
5.284000,-0.284247,-6.100716,8.658256
5.304000,-0.281620,-6.099013,8.659396
5.324000,-0.279881,-6.097255,8.660478
5.344000,-0.278759,-6.096760,8.662148
5.364000,-0.277192,-6.097156,8.663034
5.384000,-0.276359,-6.096710,8.663840
5.404000,-0.276014,-6.096531,8.665500
5.424000,-0.274451,-6.096403,8.666089
5.444000,-0.270629,-6.094623,8.666817
5.464000,-0.268378,-6.093915,8.667345
5.484000,-0.267992,-6.094507,8.668203
5.504000,-0.267132,-6.097104,8.668550
5.524000,-0.266304,-6.096826,8.669732
5.544000,-0.263881,-6.091619,8.672147
5.564000,-0.262271,-6.088331,8.673796
5.584000,-0.260702,-6.090439,8.673153
5.604000,-0.259986,-6.092287,8.673786
5.624000,-0.259015,-6.090285,8.676161
5.644000,-0.257669,-6.086555,8.677984
5.664000,-0.256266,-6.085281,8.678808
5.684000,-0.256433,-6.086582,8.679647
5.704000,-0.256861,-6.087678,8.680574
5.724000,-0.255992,-6.085148,8.682259
5.744000,-0.254749,-6.083386,8.684428
5.764000,-0.255075,-6.080659,8.686002
5.784000,-0.253506,-6.081934,8.686147
5.804000,-0.251976,-6.082047,8.686793
5.824000,-0.252689,-6.081656,8.687649
5.844000,-0.251550,-6.081772,8.687945
5.864000,-0.250256,-6.083276,8.687593
5.884000,-0.250411,-6.083040,8.688656
5.904000,-0.248314,-6.082974,8.688894
5.924000,-0.246381,-6.082670,8.688795
5.944000,-0.246695,-6.080765,8.690660
5.964000,-0.247053,-6.081225,8.690903
5.984000,-0.245803,-6.081225,8.691646
6.004000,-0.244710,-6.080843,8.691758
6.024000,-0.244849,-6.080704,8.692756
6.044000,-0.245154,-6.081045,8.693384
6.064000,-0.244019,-6.081454,8.693600
6.084000,-0.243087,-6.080303,8.694818
6.104000,-0.242763,-6.079187,8.695857
6.124000,-0.241940,-6.078681,8.696335
6.144000,-0.241196,-6.078970,8.696377
6.164000,-0.240556,-6.078562,8.696562
6.184000,-0.240209,-6.078541,8.697463
6.204000,-0.239579,-6.077659,8.698092
6.224000,-0.238069,-6.076665,8.698691
6.244000,-0.237005,-6.077071,8.698662
6.264000,-0.237532,-6.077783,8.699136
6.284000,-0.236928,-6.078010,8.699222
6.304000,-0.235014,-6.077276,8.699714
6.324000,-0.234029,-6.077173,8.700129
6.344000,-0.234011,-6.077261,8.700684
