accel_time_list,accel_x_list,accel_y_list,accel_z_list
0.060000,-0.432500,-2.290000,10.922500
0.080000,-0.420000,-2.460000,10.842500
0.100000,-0.412500,-2.572500,10.737500
0.120000,-0.375000,-2.572500,10.672500
0.140000,-0.352500,-2.507500,10.667500
0.160000,-0.350000,-2.452500,10.672500
0.180000,-0.375000,-2.422500,10.665000
0.200000,-0.402500,-2.420000,10.635000
0.220000,-0.432500,-2.417500,10.590000
0.240000,-0.437500,-2.405000,10.545000
0.260000,-0.390000,-2.370000,10.500000
0.280000,-0.340000,-2.325000,10.447500
0.300000,-0.290000,-2.247500,10.380000
0.320000,-0.302500,-2.182500,10.290000
0.340000,-0.245000,-2.070000,10.187500
0.360000,-0.175000,-1.890000,10.065000
0.380000,-0.135000,-1.720000,9.945000
0.400000,-0.105000,-1.600000,9.800000
0.420000,-0.090000,-1.505000,9.620000
0.440000,-0.102500,-1.435000,9.432500
0.460000,-0.162500,-1.425000,9.272500
0.480000,-0.252500,-1.472500,9.105000
0.500000,-0.355000,-1.555000,8.922500
0.520000,-0.470000,-1.647500,8.742500
0.540000,-0.620000,-1.732500,8.570000
0.560000,-0.792500,-1.820000,8.390000
0.580000,-0.977500,-1.915000,8.165000
0.600000,-1.202500,-2.085000,7.882500
0.620000,-1.490000,-2.275000,7.580000
0.640000,-1.857500,-2.410000,7.302500
0.660000,-2.320000,-2.487500,7.060000
0.680000,-2.875000,-2.537500,6.825000
0.700000,-3.500000,-2.572500,6.590000
0.720000,-4.177500,-2.587500,6.340000
0.740000,-4.905000,-2.595000,6.077500
0.760000,-5.672500,-2.612500,5.817500
0.780000,-6.432500,-2.647500,5.535000
0.800000,-7.120000,-2.705000,5.242500
0.820000,-7.687500,-2.785000,4.950000
0.840000,-8.150000,-2.872500,4.650000
0.860000,-8.522500,-2.960000,4.325000
0.880000,-8.772500,-3.037500,3.987500
0.900000,-8.892500,-3.107500,3.667500
0.920000,-8.937500,-3.162500,3.380000
0.940000,-8.965000,-3.200000,3.120000
0.960000,-9.002500,-3.225000,2.890000
0.980000,-9.010000,-3.235000,2.687500
1.000000,-8.975000,-3.240000,2.507500
1.020000,-8.930000,-3.240000,2.345000
1.040000,-8.897500,-3.235000,2.220000
1.060000,-8.887500,-3.222500,2.127500
1.080000,-8.877500,-3.212500,2.050000
1.100000,-8.845000,-3.200000,1.962500
1.120000,-8.830000,-3.202500,1.900000
1.140000,-8.845000,-3.232500,1.890000
1.160000,-8.845000,-3.275000,1.925000
1.180000,-8.827500,-3.310000,1.982500
1.200000,-8.810000,-3.325000,2.040000
1.220000,-8.777500,-3.320000,2.095000
1.240000,-8.730000,-3.307500,2.142500
1.260000,-8.672500,-3.300000,2.185000
1.280000,-8.620000,-3.302500,2.212500
1.300000,-8.577500,-3.322500,2.232500
1.320000,-8.540000,-3.352500,2.240000
1.340000,-8.507500,-3.392500,2.240000
1.360000,-8.482500,-3.437500,2.237500
1.380000,-8.462500,-3.487500,2.227500
1.400000,-8.442500,-3.537500,2.220000
1.420000,-8.430000,-3.582500,2.212500
1.440000,-8.432500,-3.625000,2.207500
1.460000,-8.455000,-3.660000,2.197500
1.480000,-8.487500,-3.687500,2.182500
1.500000,-8.535000,-3.710000,2.165000
1.520000,-8.597500,-3.730000,2.150000
1.540000,-8.667500,-3.740000,2.142500
1.560000,-8.742500,-3.742500,2.132500
1.580000,-8.820000,-3.740000,2.115000
1.600000,-8.910000,-3.740000,2.097500
1.620000,-9.015000,-3.742500,2.075000
1.640000,-9.132500,-3.742500,2.045000
1.660000,-9.250000,-3.737500,2.015000
1.680000,-9.350000,-3.727500,1.987500
1.700000,-9.427500,-3.715000,1.962500
1.720000,-9.482500,-3.700000,1.937500
1.740000,-9.522500,-3.680000,1.910000
1.760000,-9.550000,-3.657500,1.877500
1.780000,-9.567500,-3.630000,1.847500
1.800000,-9.572500,-3.602500,1.820000
1.820000,-9.562500,-3.572500,1.792500
1.840000,-9.532500,-3.545000,1.770000
1.860000,-9.482500,-3.517500,1.747500
1.880000,-9.412500,-3.490000,1.730000
1.900000,-9.320000,-3.462500,1.712500
1.920000,-9.212500,-3.435000,1.700000
1.940000,-9.090000,-3.410000,1.687500
1.960000,-8.962500,-3.385000,1.675000
1.980000,-8.840000,-3.365000,1.667500
2.000000,-8.722500,-3.350000,1.657500
2.020000,-8.620000,-3.335000,1.650000
2.040000,-8.542500,-3.320000,1.642500
2.060000,-8.490000,-3.307500,1.637500
2.080000,-8.460000,-3.290000,1.632500
2.100000,-8.455000,-3.272500,1.627500
2.120000,-8.477500,-3.260000,1.625000
2.140000,-8.525000,-3.247500,1.620000
2.160000,-8.607500,-3.237500,1.617500
2.180000,-8.722500,-3.232500,1.610000
2.200000,-8.870000,-3.232500,1.597500
2.220000,-9.052500,-3.247500,1.595000
2.240000,-9.270000,-3.277500,1.602500
2.260000,-9.495000,-3.317500,1.605000
2.280000,-9.680000,-3.365000,1.610000
2.300000,-9.812500,-3.417500,1.627500
2.320000,-9.915000,-3.470000,1.657500
2.340000,-9.982500,-3.512500,1.695000
2.360000,-10.005000,-3.542500,1.735000
2.380000,-10.000000,-3.567500,1.775000
2.400000,-9.967500,-3.587500,1.810000
2.420000,-9.897500,-3.602500,1.842500
2.440000,-9.790000,-3.615000,1.870000
2.460000,-9.670000,-3.625000,1.895000
2.480000,-9.557500,-3.630000,1.917500
2.500000,-9.447500,-3.635000,1.935000
2.520000,-9.325000,-3.642500,1.952500
2.540000,-9.210000,-3.655000,1.965000
2.560000,-9.122500,-3.672500,1.975000
2.580000,-9.055000,-3.695000,1.980000
2.600000,-8.995000,-3.720000,1.985000
2.620000,-8.947500,-3.750000,1.985000
2.640000,-8.920000,-3.782500,1.982500
2.660000,-8.910000,-3.817500,1.980000
2.680000,-8.925000,-3.847500,1.977500
2.700000,-8.967500,-3.877500,1.980000
2.720000,-9.035000,-3.900000,1.982500
2.740000,-9.125000,-3.907500,1.980000
2.760000,-9.237500,-3.902500,1.972500
2.780000,-9.362500,-3.887500,1.962500
2.800000,-9.490000,-3.862500,1.955000
2.820000,-9.625000,-3.832500,1.952500
2.840000,-9.747500,-3.797500,1.950000
2.860000,-9.850000,-3.757500,1.947500
2.880000,-9.940000,-3.717500,1.947500
2.900000,-10.002500,-3.680000,1.945000
2.920000,-10.027500,-3.637500,1.942500
2.940000,-10.025000,-3.600000,1.935000
2.960000,-10.010000,-3.562500,1.925000
2.980000,-9.980000,-3.525000,1.915000
3.000000,-9.935000,-3.487500,1.902500
3.020000,-9.875000,-3.450000,1.895000
3.040000,-9.797500,-3.415000,1.890000
3.060000,-9.700000,-3.377500,1.885000
3.080000,-9.585000,-3.342500,1.882500
3.100000,-9.457500,-3.310000,1.877500
3.120000,-9.317500,-3.277500,1.872500
3.140000,-9.175000,-3.247500,1.867500
3.160000,-9.042500,-3.225000,1.860000
3.180000,-8.927500,-3.205000,1.852500
3.200000,-8.840000,-3.190000,1.845000
3.220000,-8.777500,-3.177500,1.835000
3.240000,-8.745000,-3.162500,1.822500
3.260000,-8.740000,-3.147500,1.810000
3.280000,-8.762500,-3.137500,1.797500
3.300000,-8.810000,-3.130000,1.787500
3.320000,-8.882500,-3.127500,1.775000
3.340000,-8.985000,-3.125000,1.757500
3.360000,-9.105000,-3.127500,1.737500
3.380000,-9.237500,-3.137500,1.725000
3.400000,-9.380000,-3.152500,1.720000
3.420000,-9.535000,-3.167500,1.722500
3.440000,-9.677500,-3.180000,1.725000
3.460000,-9.772500,-3.190000,1.730000
3.480000,-9.827500,-3.207500,1.737500
3.500000,-9.870000,-3.232500,1.750000
3.520000,-9.897500,-3.262500,1.765000
3.540000,-9.902500,-3.295000,1.785000
3.560000,-9.887500,-3.330000,1.805000
3.580000,-9.855000,-3.370000,1.827500
3.600000,-9.810000,-3.407500,1.850000
3.620000,-9.765000,-3.437500,1.882500
3.640000,-9.720000,-3.455000,1.917500
3.660000,-9.660000,-3.462500,1.957500
3.680000,-9.595000,-3.472500,1.997500
3.700000,-9.545000,-3.492500,2.035000
3.720000,-9.512500,-3.517500,2.067500
3.740000,-9.490000,-3.545000,2.095000
3.760000,-9.477500,-3.567500,2.115000
3.780000,-9.480000,-3.587500,2.135000
3.800000,-9.492500,-3.605000,2.147500
3.820000,-9.512500,-3.617500,2.157500
3.840000,-9.542500,-3.622500,2.165000
3.860000,-9.580000,-3.625000,2.170000
3.880000,-9.627500,-3.622500,2.175000
3.900000,-9.682500,-3.620000,2.175000
3.920000,-9.757500,-3.617500,2.172500
3.940000,-9.847500,-3.610000,2.170000
3.960000,-9.930000,-3.595000,2.167500
3.980000,-10.005000,-3.575000,2.157500
4.000000,-10.092500,-3.550000,2.142500
4.020000,-10.182500,-3.525000,2.127500
4.040000,-10.240000,-3.500000,2.115000
4.060000,-10.252500,-3.475000,2.102500
4.080000,-10.225000,-3.452500,2.092500
4.100000,-10.175000,-3.435000,2.080000
4.120000,-10.105000,-3.417500,2.067500
4.140000,-10.017500,-3.405000,2.052500
4.160000,-9.912500,-3.390000,2.040000
4.180000,-9.795000,-3.377500,2.027500
4.200000,-9.672500,-3.365000,2.015000
4.220000,-9.542500,-3.350000,2.000000
4.240000,-9.410000,-3.332500,1.990000
4.260000,-9.267500,-3.310000,1.980000
4.280000,-9.127500,-3.285000,1.972500
4.300000,-8.995000,-3.260000,1.965000
4.320000,-8.875000,-3.237500,1.957500
4.340000,-8.772500,-3.220000,1.947500
4.360000,-8.695000,-3.205000,1.937500
4.380000,-8.647500,-3.192500,1.927500
4.400000,-8.632500,-3.185000,1.917500
4.420000,-8.645000,-3.180000,1.907500
4.440000,-8.682500,-3.177500,1.900000
4.460000,-8.745000,-3.177500,1.892500
4.480000,-8.832500,-3.182500,1.890000
4.500000,-8.945000,-3.187500,1.890000
4.520000,-9.085000,-3.197500,1.892500
4.540000,-9.235000,-3.205000,1.897500
4.560000,-9.397500,-3.212500,1.897500
4.580000,-9.567500,-3.220000,1.902500
4.600000,-9.725000,-3.222500,1.917500
4.620000,-9.847500,-3.222500,1.935000
4.640000,-9.925000,-3.222500,1.957500
4.660000,-9.955000,-3.222500,1.977500
4.680000,-9.960000,-3.230000,1.997500
4.700000,-9.942500,-3.245000,2.010000
4.720000,-9.905000,-3.265000,2.025000
4.740000,-9.847500,-3.295000,2.042500
4.760000,-9.772500,-3.325000,2.060000
4.780000,-9.687500,-3.355000,2.080000
4.800000,-9.602500,-3.377500,2.097500
4.820000,-9.522500,-3.392500,2.117500
4.840000,-9.442500,-3.402500,2.140000
4.860000,-9.375000,-3.412500,2.165000
4.880000,-9.320000,-3.422500,2.187500
4.900000,-9.282500,-3.430000,2.207500
4.920000,-9.257500,-3.440000,2.225000
4.940000,-9.255000,-3.452500,2.240000
4.960000,-9.265000,-3.462500,2.252500
4.980000,-9.285000,-3.472500,2.265000
5.000000,-9.312500,-3.477500,2.277500
5.020000,-9.345000,-3.477500,2.285000
5.040000,-9.382500,-3.472500,2.287500
5.060000,-9.422500,-3.462500,2.290000
5.080000,-9.475000,-3.450000,2.290000
5.100000,-9.542500,-3.435000,2.290000
5.120000,-9.625000,-3.420000,2.290000
5.140000,-9.710000,-3.402500,2.287500
5.160000,-9.777500,-3.385000,2.282500
5.180000,-9.817500,-3.367500,2.277500
5.200000,-9.837500,-3.350000,2.270000
5.220000,-9.847500,-3.327500,2.260000
5.240000,-9.850000,-3.305000,2.247500
5.260000,-9.847500,-3.277500,2.232500
5.280000,-9.835000,-3.252500,2.217500
5.300000,-9.805000,-3.230000,2.202500
5.320000,-9.760000,-3.210000,2.190000
5.340000,-9.702500,-3.190000,2.177500
5.360000,-9.630000,-3.175000,2.162500
5.380000,-9.545000,-3.160000,2.150000
5.400000,-9.450000,-3.147500,2.137500
5.420000,-9.347500,-3.132500,2.125000
5.440000,-9.242500,-3.122500,2.112500
5.460000,-9.150000,-3.110000,2.102500
5.480000,-9.070000,-3.100000,2.095000
5.500000,-8.997500,-3.090000,2.087500
5.520000,-8.935000,-3.080000,2.080000
5.540000,-8.887500,-3.067500,2.077500
5.560000,-8.857500,-3.052500,2.075000
5.580000,-8.840000,-3.040000,2.075000
5.600000,-8.832500,-3.030000,2.072500
5.620000,-8.845000,-3.020000,2.070000
5.640000,-8.877500,-3.010000,2.070000
5.660000,-8.932500,-3.005000,2.070000
5.680000,-9.015000,-3.002500,2.067500
5.700000,-9.117500,-3.005000,2.067500
5.720000,-9.217500,-3.012500,2.075000
5.740000,-9.307500,-3.025000,2.087500
5.760000,-9.390000,-3.040000,2.100000
5.780000,-9.455000,-3.057500,2.115000
5.800000,-9.495000,-3.075000,2.127500
5.820000,-9.515000,-3.100000,2.140000
5.840000,-9.530000,-3.127500,2.155000
5.860000,-9.542500,-3.150000,2.170000
5.880000,-9.550000,-3.170000,2.187500
5.900000,-9.537500,-3.182500,2.207500
5.920000,-9.510000,-3.192500,2.222500
5.940000,-9.472500,-3.205000,2.237500
5.960000,-9.432500,-3.215000,2.252500
5.980000,-9.385000,-3.225000,2.270000
6.000000,-9.332500,-3.240000,2.285000
6.020000,-9.290000,-3.257500,2.300000
6.040000,-9.252500,-3.277500,2.312500
6.060000,-9.222500,-3.300000,2.322500
6.080000,-9.200000,-3.320000,2.332500
6.100000,-9.192500,-3.337500,2.345000
6.120000,-9.202500,-3.347500,2.357500
6.140000,-9.217500,-3.350000,2.367500
6.160000,-9.235000,-3.342500,2.375000
6.180000,-9.267500,-3.335000,2.380000
6.200000,-9.312500,-3.327500,2.385000
6.220000,-9.372500,-3.320000,2.390000
6.240000,-9.447500,-3.315000,2.395000
6.260000,-9.520000,-3.310000,2.397500
6.280000,-9.580000,-3.305000,2.392500
6.300000,-9.642500,-3.295000,2.382500
6.320000,-9.712500,-3.280000,2.365000
6.340000,-9.780000,-3.260000,2.350000
6.360000,-9.837500,-3.237500,2.330000
6.380000,-9.872500,-3.212500,2.315000
6.400000,-9.882500,-3.192500,2.297500
6.420000,-9.865000,-3.172500,2.280000
6.440000,-9.825000,-3.155000,2.262500
6.460000,-9.767500,-3.142500,2.242500
6.480000,-9.692500,-3.132500,2.220000
6.500000,-9.605000,-3.125000,2.202500
6.520000,-9.517500,-3.122500,2.182500
6.540000,-9.425000,-3.117500,2.165000
6.560000,-9.327500,-3.112500,2.145000
6.580000,-9.227500,-3.107500,2.127500
6.600000,-9.127500,-3.097500,2.112500
6.620000,-9.027500,-3.085000,2.102500
6.640000,-8.932500,-3.070000,2.095000
6.660000,-8.842500,-3.052500,2.087500
6.680000,-8.765000,-3.040000,2.080000
6.700000,-8.710000,-3.030000,2.075000
6.720000,-8.670000,-3.022500,2.070000
6.740000,-8.642500,-3.017500,2.065000
6.760000,-8.632500,-3.012500,2.060000
6.780000,-8.645000,-3.012500,2.057500
6.800000,-8.690000,-3.007500,2.052500
6.820000,-8.787500,-3.005000,2.045000
6.840000,-8.927500,-3.007500,2.040000
6.860000,-9.077500,-3.017500,2.042500
6.880000,-9.212500,-3.032500,2.060000
6.900000,-9.327500,-3.042500,2.077500
6.920000,-9.412500,-3.052500,2.087500
6.940000,-9.477500,-3.065000,2.102500
6.960000,-9.535000,-3.085000,2.122500
6.980000,-9.580000,-3.112500,2.147500
7.000000,-9.595000,-3.140000,2.172500
7.020000,-9.592500,-3.160000,2.200000
7.040000,-9.577500,-3.175000,2.225000
7.060000,-9.552500,-3.190000,2.247500
7.080000,-9.517500,-3.205000,2.267500
7.100000,-9.477500,-3.222500,2.285000
7.120000,-9.432500,-3.237500,2.302500
7.140000,-9.382500,-3.252500,2.322500
7.160000,-9.345000,-3.265000,2.342500
7.180000,-9.317500,-3.277500,2.360000
7.200000,-9.297500,-3.287500,2.375000
7.220000,-9.287500,-3.302500,2.385000
7.240000,-9.292500,-3.315000,2.392500
7.260000,-9.307500,-3.327500,2.402500
7.280000,-9.335000,-3.342500,2.412500
7.300000,-9.367500,-3.360000,2.415000
7.320000,-9.420000,-3.387500,2.410000
7.340000,-9.510000,-3.427500,2.400000
7.360000,-9.630000,-3.460000,2.390000
7.380000,-9.755000,-3.482500,2.385000
7.400000,-9.870000,-3.507500,2.380000
7.420000,-9.982500,-3.545000,2.365000
7.440000,-10.095000,-3.600000,2.342500
7.460000,-10.212500,-3.655000,2.315000
7.480000,-10.322500,-3.695000,2.295000
7.500000,-10.415000,-3.727500,2.275000
7.520000,-10.477500,-3.752500,2.257500
7.540000,-10.505000,-3.765000,2.252500
7.560000,-10.520000,-3.772500,2.265000
7.580000,-10.512500,-3.770000,2.277500
7.600000,-10.455000,-3.742500,2.290000
7.620000,-10.342500,-3.702500,2.310000
7.640000,-10.192500,-3.670000,2.340000
7.660000,-10.017500,-3.640000,2.370000
7.680000,-9.805000,-3.600000,2.410000
7.700000,-9.552500,-3.557500,2.462500
7.720000,-9.275000,-3.520000,2.517500
7.740000,-8.975000,-3.487500,2.575000
7.760000,-8.635000,-3.437500,2.632500
7.780000,-8.245000,-3.365000,2.697500
7.800000,-7.832500,-3.287500,2.777500
7.820000,-7.452500,-3.220000,2.872500
7.840000,-7.075000,-3.150000,2.967500
7.860000,-6.640000,-3.067500,3.067500
7.880000,-6.185000,-2.980000,3.190000
7.900000,-5.820000,-2.915000,3.335000
7.920000,-5.515000,-2.862500,3.482500
7.940000,-5.172500,-2.792500,3.627500
7.960000,-4.862500,-2.675000,3.787500
7.980000,-4.502500,-2.612500,3.935000
8.000000,-4.205000,-2.562500,4.110000
8.020000,-3.910000,-2.525000,4.282500
8.040000,-3.710000,-2.490000,4.475000
