gyro_time_list,gyro_x_list,gyro_y_list,gyro_z_list
0.310000,-3.724346,3.891152,2.849283
0.330000,-3.916466,3.933386,3.011759
0.350000,-4.067393,3.950602,3.186933
0.370000,-4.143190,3.934935,3.351837
0.390000,-4.188602,3.880479,3.485547
0.410000,-4.218790,3.781216,3.586905
0.430000,-4.238081,3.634235,3.645194
0.450000,-4.215782,3.460431,3.653021
0.470000,-4.165247,3.278988,3.607283
0.490000,-4.091444,3.099993,3.517335
0.510000,-3.988026,2.920461,3.395221
0.530000,-3.863720,2.737814,3.248673
0.550000,-3.736007,2.553783,3.083712
0.570000,-3.612309,2.371514,2.911193
0.590000,-3.493524,2.194058,2.738138
0.610000,-3.375274,2.022377,2.569904
0.630000,-3.250462,1.858870,2.409992
0.650000,-3.111062,1.706580,2.259202
0.670000,-2.949493,1.567853,2.116643
0.690000,-2.764189,1.442726,1.981444
0.710000,-2.564280,1.326438,1.849889
0.730000,-2.367644,1.214741,1.719155
0.750000,-2.190950,1.105954,1.585475
0.770000,-2.039565,1.000951,1.446227
0.790000,-1.905486,0.896254,1.298690
0.810000,-1.779113,0.792711,1.144331
0.830000,-1.670873,0.690691,0.982473
0.850000,-1.588379,0.589305,0.812141
0.870000,-1.510935,0.486188,0.632911
0.890000,-1.431283,0.381095,0.441429
0.910000,-1.354972,0.275907,0.239419
0.930000,-1.285169,0.171216,0.025852
0.950000,-1.207972,0.064862,-0.196769
0.970000,-1.107970,-0.041327,-0.423035
0.990000,-0.991108,-0.149198,-0.641208
1.010000,-0.874926,-0.263186,-0.846009
1.030000,-0.745235,-0.381213,-1.033646
1.050000,-0.586384,-0.497157,-1.194061
1.070000,-0.413103,-0.608983,-1.324072
1.090000,-0.244451,-0.720368,-1.423815
1.110000,-0.093410,-0.831035,-1.493974
1.130000,0.033667,-0.935088,-1.540681
1.150000,0.131868,-1.028786,-1.567680
1.170000,0.211845,-1.113004,-1.577863
1.190000,0.292054,-1.184793,-1.573360
1.210000,0.369332,-1.242618,-1.555728
1.230000,0.427699,-1.290695,-1.532693
1.250000,0.464281,-1.335828,-1.508642
1.270000,0.485899,-1.377942,-1.482780
1.290000,0.498378,-1.412260,-1.458706
1.310000,0.503840,-1.442271,-1.438135
1.330000,0.500123,-1.474192,-1.420167
1.350000,0.483902,-1.508199,-1.406832
1.370000,0.457953,-1.541191,-1.400071
1.390000,0.425693,-1.574103,-1.401028
1.410000,0.401780,-1.611610,-1.411576
1.430000,0.406078,-1.650768,-1.427742
1.450000,0.435100,-1.683016,-1.443484
1.470000,0.465408,-1.696766,-1.448067
1.490000,0.464691,-1.675432,-1.422473
1.510000,0.432856,-1.642908,-1.380883
1.530000,0.395450,-1.608927,-1.319383
1.550000,0.340957,-1.566475,-1.237532
1.570000,0.256182,-1.478978,-1.148865
1.590000,0.170259,-1.338083,-1.031324
1.610000,0.102941,-1.163900,-0.893400
1.630000,0.063704,-0.979092,-0.755147
1.650000,0.060977,-0.779428,-0.635016
1.670000,0.100216,-0.525591,-0.521075
1.690000,0.173778,-0.224426,-0.388665
1.710000,0.281679,0.075124,-0.287475
1.730000,0.357101,0.348670,-0.238585
1.750000,0.380314,0.639528,-0.217049
1.770000,0.326432,0.891050,-0.195550
1.790000,0.266048,1.018739,-0.190053
1.810000,0.298620,0.586439,-0.286911
1.830000,0.463270,0.144808,-0.476725
1.850000,0.306891,0.275173,-0.675199
1.870000,0.132547,0.649594,-0.824061
1.890000,-0.059985,0.539330,-0.808417
1.910000,-0.109216,0.430653,-0.736929
1.930000,-0.122238,0.371703,-0.603044
1.950000,-0.078145,0.300560,-0.576645
1.970000,0.067655,0.303588,-0.547779
1.990000,0.109004,0.312111,-0.485392
2.010000,-0.026009,0.296658,-0.420874
2.030000,-0.189445,0.282770,-0.386500
2.050000,-0.223528,0.310951,-0.355155
2.070000,-0.183473,0.340014,-0.337133
2.090000,-0.205981,0.332615,-0.332422
2.110000,-0.313152,0.320763,-0.324532
2.130000,-0.431295,0.297993,-0.318539
2.150000,-0.437476,0.280600,-0.310379
2.170000,-0.398796,0.273877,-0.295771
2.190000,-0.374350,0.268934,-0.287822
2.210000,-0.354112,0.261744,-0.280631
2.230000,-0.318980,0.250183,-0.266391
2.250000,-0.279539,0.238790,-0.248606
2.270000,-0.265540,0.229374,-0.232045
2.290000,-0.288690,0.221935,-0.221453
2.332000,-0.338623,0.224223,-0.220417
2.352000,-0.342438,0.223825,-0.219260
2.372000,-0.309710,0.228038,-0.212617
2.392000,-0.274595,0.230508,-0.206059
2.412000,-0.260421,0.229118,-0.200204
2.432000,-0.262616,0.225696,-0.193169
2.452000,-0.261837,0.221468,-0.186703
2.472000,-0.250713,0.218318,-0.180370
2.492000,-0.237881,0.215633,-0.174398
2.512000,-0.230513,0.210896,-0.170117
2.532000,-0.224118,0.205463,-0.166741
2.552000,-0.212864,0.201498,-0.162373
2.572000,-0.200424,0.198336,-0.157622
2.592000,-0.192458,0.194763,-0.153380
2.612000,-0.188379,0.190705,-0.149677
2.632000,-0.183839,0.187378,-0.145561
2.652000,-0.177816,0.184641,-0.141183
2.672000,-0.170836,0.181099,-0.137397
2.692000,-0.164837,0.177157,-0.134218
2.712000,-0.161181,0.173598,-0.131256
2.732000,-0.160536,0.170318,-0.128582
2.752000,-0.161275,0.166672,-0.126135
2.772000,-0.159759,0.163023,-0.123735
2.792000,-0.155686,0.160063,-0.121024
2.812000,-0.152757,0.157290,-0.118596
2.832000,-0.153955,0.154348,-0.116732
2.852000,-0.156996,0.151260,-0.115229
2.872000,-0.156452,0.148257,-0.113535
2.892000,-0.151111,0.145807,-0.111287
2.912000,-0.146048,0.143573,-0.109024
2.932000,-0.144562,0.141297,-0.107221
2.952000,-0.144649,0.138952,-0.105770
2.972000,-0.142210,0.136186,-0.104312
2.992000,-0.136379,0.133707,-0.102581
3.012000,-0.131093,0.131760,-0.100645
3.032000,-0.128890,0.129894,-0.099116
3.052000,-0.129759,0.127895,-0.098032
3.072000,-0.130634,0.125777,-0.097053
3.092000,-0.129103,0.123857,-0.095838
3.112000,-0.126566,0.122343,-0.094427
3.132000,-0.125058,0.120871,-0.093078
3.152000,-0.124547,0.119164,-0.091913
3.172000,-0.122868,0.117625,-0.090531
3.192000,-0.119212,0.116414,-0.088922
3.212000,-0.115757,0.115311,-0.087378
3.232000,-0.114002,0.114012,-0.086077
3.252000,-0.112924,0.112706,-0.084911
3.272000,-0.111243,0.111639,-0.083636
3.292000,-0.108891,0.110650,-0.082336
3.312000,-0.106771,0.109520,-0.081097
3.332000,-0.105466,0.108257,-0.080057
3.352000,-0.104410,0.107156,-0.079006
3.372000,-0.103122,0.106161,-0.077931
3.392000,-0.101323,0.105104,-0.076899
3.412000,-0.099347,0.104166,-0.075830
3.432000,-0.097727,0.103216,-0.074778
3.452000,-0.096574,0.102167,-0.073884
3.472000,-0.095580,0.101264,-0.072950
3.492000,-0.094151,0.100290,-0.072096
3.512000,-0.091933,0.099331,-0.071224
3.532000,-0.090127,0.098444,-0.070390
3.552000,-0.089536,0.097529,-0.069700
3.572000,-0.089653,0.096631,-0.069089
3.592000,-0.089402,0.095753,-0.068447
3.612000,-0.088464,0.094971,-0.067734
3.632000,-0.087550,0.094241,-0.067017
3.652000,-0.087071,0.093581,-0.066302
3.672000,-0.086730,0.092972,-0.065585
3.692000,-0.086048,0.092353,-0.064885
3.712000,-0.085005,0.091808,-0.064134
3.732000,-0.084016,0.091295,-0.063382
3.752000,-0.083266,0.090799,-0.062646
3.772000,-0.082459,0.090270,-0.061917
3.792000,-0.081279,0.089716,-0.061232
3.812000,-0.080135,0.089165,-0.060578
3.832000,-0.079508,0.088587,-0.059993
3.852000,-0.079280,0.087938,-0.059481
3.872000,-0.078868,0.087270,-0.058980
3.892000,-0.078097,0.086651,-0.058439
3.912000,-0.077449,0.086051,-0.057923
3.932000,-0.077096,0.085475,-0.057416
3.952000,-0.076754,0.084910,-0.056911
3.972000,-0.076208,0.084310,-0.056425
3.992000,-0.075568,0.083717,-0.055928
4.012000,-0.074848,0.083180,-0.055381
4.032000,-0.074171,0.082668,-0.054843
4.052000,-0.073858,0.082126,-0.054374
4.072000,-0.073874,0.081517,-0.054005
4.092000,-0.073841,0.080927,-0.053616
4.112000,-0.073634,0.080341,-0.053213
4.132000,-0.073434,0.079727,-0.052831
4.152000,-0.073285,0.079112,-0.052484
4.172000,-0.073047,0.078525,-0.052120
4.192000,-0.072479,0.077965,-0.051722
4.212000,-0.071890,0.077404,-0.051301
4.232000,-0.071680,0.076846,-0.050941
4.252000,-0.071603,0.076269,-0.050605
4.272000,-0.070851,0.075729,-0.050214
4.292000,-0.069709,0.075222,-0.049794
4.312000,-0.069030,0.074712,-0.049382
4.349000,-0.068872,0.074182,-0.049039
4.369000,-0.068441,0.073639,-0.048704
4.389000,-0.067847,0.073125,-0.048329
4.409000,-0.067338,0.072647,-0.047934
4.429000,-0.067081,0.072152,-0.047598
4.450000,-0.067280,0.071588,-0.047366
4.470000,-0.067540,0.070996,-0.047178
4.490000,-0.067394,0.070467,-0.046902
4.510000,-0.066969,0.069988,-0.046587
4.530000,-0.066738,0.069482,-0.046292
4.550000,-0.066575,0.068941,-0.046034
4.570000,-0.066097,0.068423,-0.045727
4.590000,-0.065478,0.067931,-0.045372
4.610000,-0.065462,0.067458,-0.045072
4.630000,-0.065624,0.066867,-0.044885
4.650000,-0.065006,0.066236,-0.044669
4.670000,-0.063945,0.065636,-0.044380
4.690000,-0.063589,0.065037,-0.044064
4.710000,-0.062446,0.064295,-0.043767
4.730000,-0.058592,0.063424,-0.043483
4.750000,-0.053949,0.063195,-0.042884
4.770000,-0.051595,0.063061,-0.042407
4.790000,-0.051116,0.062196,-0.042405
4.810000,-0.050519,0.060864,-0.042405
4.830000,-0.048848,0.059737,-0.042054
4.850000,-0.046990,0.058753,-0.041574
4.870000,-0.044870,0.057494,-0.041243
4.890000,-0.041830,0.056276,-0.040852
4.910000,-0.037314,0.055657,-0.040377
4.930000,-0.032937,0.054963,-0.040192
4.950000,-0.031774,0.053145,-0.039955
4.970000,-0.031974,0.051006,-0.039334
4.990000,-0.030317,0.049549,-0.038840
5.010000,-0.028617,0.048102,-0.038623
5.030000,-0.028330,0.046423,-0.037652
5.050000,-0.024467,0.045110,-0.037009
5.070000,-0.019408,0.044445,-0.036501
5.090000,-0.021233,0.042905,-0.035828
5.110000,-0.022470,0.040838,-0.034609
5.130000,-0.014548,0.039536,-0.034429
5.150000,-0.005125,0.040091,-0.033107
5.170000,-0.007596,0.038524,-0.031614
5.190000,-0.010953,0.036380,-0.031213
5.210000,-0.007378,0.034462,-0.032533
5.230000,-0.006687,0.033527,-0.031728
5.250000,-0.010298,0.031324,-0.031460
5.270000,-0.010612,0.029377,-0.032263
5.290000,-0.011460,0.028378,-0.032050
5.310000,-0.013537,0.026039,-0.032299
5.330000,-0.015935,0.022970,-0.033928
5.350000,-0.017399,0.021340,-0.035837
5.370000,-0.021139,0.020472,-0.036914
5.390000,-0.023576,0.017763,-0.038438
5.410000,-0.017897,0.016599,-0.041220
5.430000,-0.009475,0.017060,-0.043316
5.450000,-0.007543,0.016540,-0.044185
5.470000,-0.009610,0.015274,-0.044605
5.490000,-0.008986,0.014446,-0.044504
5.510000,-0.003338,0.014489,-0.044307
5.530000,-0.000199,0.013955,-0.043989
5.550000,-0.003567,0.012638,-0.043518
5.570000,-0.006079,0.010073,-0.044172
5.590000,-0.003307,0.008430,-0.045703
5.610000,0.004412,0.008672,-0.047050
5.630000,0.012924,0.010486,-0.047592
5.650000,0.019403,0.011535,-0.047931
5.670000,0.024999,0.011773,-0.047957
5.690000,0.029006,0.012024,-0.047054
5.710000,0.028861,0.012382,-0.046146
5.730000,0.027196,0.011756,-0.046133
5.750000,0.025056,0.011368,-0.046413
5.770000,0.023196,0.011882,-0.046196
5.790000,0.021519,0.011777,-0.045772
5.810000,0.021598,0.011411,-0.045305
5.830000,0.022988,0.011615,-0.044290
5.850000,0.023084,0.011718,-0.043565
5.870000,0.021883,0.011378,-0.043242
5.890000,0.021369,0.010803,-0.043052
5.910000,0.022673,0.010405,-0.042826
5.930000,0.023581,0.010345,-0.042628
5.950000,0.023004,0.011011,-0.041870
5.970000,0.021776,0.010864,-0.041720
5.990000,0.019940,0.010148,-0.041736
6.010000,0.019095,0.010016,-0.041553
6.030000,0.019051,0.010428,-0.041204
6.050000,0.018349,0.010659,-0.040920
6.070000,0.017483,0.010353,-0.040919
6.090000,0.016573,0.010310,-0.040743
6.110000,0.016093,0.010593,-0.040470
6.130000,0.015268,0.010794,-0.040305
6.150000,0.013897,0.010750,-0.040122
6.170000,0.012615,0.010731,-0.039838
6.190000,0.011772,0.010804,-0.039654
6.210000,0.011180,0.010625,-0.039593
6.230000,0.010502,0.010367,-0.039525
6.250000,0.009565,0.010268,-0.039357
6.270000,0.008264,0.010258,-0.039233
6.290000,0.007396,0.010144,-0.039196
6.310000,0.007489,0.010146,-0.039264
6.330000,0.007470,0.010001,-0.039567
