accel_time_list,accel_x_list,accel_y_list,accel_z_list
0.020000,3.224990,-7.912837,-3.914520
0.040000,3.379416,-7.855376,-3.992331
0.060000,3.474984,-7.825026,-4.006312
0.080000,3.522196,-7.841013,-4.013898
0.100000,3.545700,-7.893765,-4.011737
0.120000,3.553336,-7.964227,-4.059828
0.140000,3.599324,-8.078724,-4.111412
0.160000,3.617296,-8.153224,-4.159520
0.180000,3.664227,-8.181794,-4.175267
0.200000,3.700887,-8.193164,-4.161757
0.220000,3.694324,-8.208862,-4.138402
0.240000,3.692500,-8.234913,-4.120342
0.260000,3.695991,-8.258456,-4.106178
0.280000,3.701745,-8.273924,-4.090401
0.300000,3.729809,-8.283568,-4.070572
0.320000,3.756855,-8.291079,-4.051838
0.340000,3.766008,-8.306034,-4.032858
0.360000,3.758833,-8.325444,-4.014344
0.380000,3.747285,-8.337791,-4.000340
0.400000,3.736403,-8.343745,-3.986387
0.420000,3.732491,-8.340709,-3.970137
0.440000,3.730828,-8.324795,-3.951550
0.460000,3.729949,-8.301377,-3.930480
0.480000,3.727620,-8.275634,-3.907417
0.500000,3.726650,-8.247705,-3.886345
0.520000,3.739826,-8.215785,-3.872514
0.540000,3.758660,-8.182371,-3.868956
0.560000,3.782521,-8.150375,-3.875378
0.580000,3.807564,-8.127643,-3.877990
0.600000,3.833039,-8.112514,-3.878428
0.620000,3.860856,-8.098201,-3.879479
0.640000,3.892110,-8.082864,-3.878828
0.660000,3.929422,-8.066275,-3.876711
0.680000,3.964152,-8.048453,-3.875307
0.700000,4.000455,-8.033923,-3.882431
0.720000,4.038623,-8.036042,-3.897521
0.740000,4.068808,-8.046015,-3.899216
0.760000,4.085503,-8.047473,-3.903774
0.780000,4.089303,-8.039695,-3.908865
0.800000,4.085975,-8.024353,-3.903201
0.820000,4.088464,-8.005870,-3.889879
0.840000,4.097143,-7.991326,-3.871231
0.860000,4.111209,-7.980429,-3.857710
0.880000,4.126275,-7.978266,-3.842919
0.900000,4.136703,-7.974574,-3.826185
0.920000,4.145854,-7.970141,-3.811284
0.940000,4.153747,-7.967468,-3.797738
0.960000,4.162806,-7.966605,-3.784721
0.980000,4.172747,-7.968982,-3.775285
1.000000,4.184706,-7.968331,-3.767888
1.020000,4.197153,-7.960393,-3.760015
1.040000,4.209077,-7.953161,-3.754959
1.060000,4.221991,-7.952576,-3.749359
1.080000,4.234591,-7.954629,-3.745087
1.100000,4.248085,-7.956745,-3.743408
1.120000,4.259645,-7.956869,-3.741231
1.140000,4.269063,-7.956028,-3.739320
1.160000,4.275867,-7.954859,-3.737839
1.180000,4.278914,-7.953599,-3.734064
1.200000,4.282815,-7.953208,-3.731029
1.220000,4.285944,-7.953129,-3.726510
1.240000,4.289006,-7.949706,-3.720239
1.260000,4.290387,-7.943716,-3.714248
1.280000,4.288539,-7.939616,-3.709920
1.300000,4.284938,-7.938126,-3.706133
1.320000,4.281663,-7.936329,-3.699949
1.340000,4.278166,-7.934162,-3.691858
1.360000,4.275345,-7.933055,-3.684808
1.380000,4.271540,-7.931267,-3.678609
1.400000,4.267301,-7.929495,-3.672202
1.420000,4.263305,-7.927922,-3.666798
1.440000,4.262821,-7.926576,-3.663473
1.460000,4.263667,-7.927439,-3.662039
1.480000,4.263562,-7.932525,-3.661007
1.500000,4.261019,-7.944771,-3.661822
1.520000,4.251825,-7.960981,-3.666687
1.540000,4.238713,-7.972062,-3.668648
1.560000,4.223602,-7.978877,-3.667918
1.580000,4.206800,-7.990174,-3.669406
1.600000,4.189097,-8.004479,-3.669185
1.620000,4.174394,-8.022763,-3.670648
1.640000,4.161857,-8.045281,-3.675389
1.660000,4.149329,-8.065331,-3.678860
1.680000,4.136223,-8.075920,-3.677505
1.700000,4.123095,-8.079633,-3.673605
1.720000,4.110528,-8.081597,-3.669204
1.740000,4.097965,-8.082726,-3.664254
1.760000,4.087372,-8.081435,-3.658952
1.780000,4.078545,-8.078743,-3.653369
1.800000,4.070710,-8.079364,-3.650005
1.820000,4.061887,-8.082554,-3.647549
1.840000,4.053084,-8.087703,-3.644825
1.860000,4.040513,-8.096467,-3.644114
1.880000,4.025886,-8.108593,-3.643795
1.900000,4.014412,-8.121047,-3.641062
1.920000,4.001082,-8.132015,-3.635311
1.940000,3.991193,-8.140097,-3.626134
1.960000,3.980694,-8.146323,-3.614277
1.980000,3.970071,-8.149961,-3.607285
2.000000,3.962335,-8.152108,-3.603576
2.062000,3.957241,-8.152517,-3.603848
2.082000,3.952260,-8.150931,-3.604794
2.102000,3.945256,-8.147161,-3.605908
2.122000,3.937996,-8.142393,-3.604013
2.142000,3.931426,-8.138194,-3.600598
2.162000,3.926378,-8.134800,-3.597274
2.182000,3.923532,-8.133734,-3.595390
2.202000,3.922235,-8.136180,-3.595578
2.222000,3.921172,-8.139900,-3.598158
2.242000,3.917612,-8.143577,-3.601776
2.262000,3.912518,-8.148193,-3.605307
2.282000,3.905955,-8.152437,-3.607180
2.302000,3.897300,-8.156500,-3.608301
2.322000,3.887740,-8.161947,-3.609327
2.342000,3.881250,-8.168702,-3.610164
2.362000,3.876244,-8.176257,-3.610551
2.382000,3.871194,-8.186016,-3.610407
2.402000,3.867229,-8.197017,-3.610766
2.422000,3.864790,-8.206745,-3.612152
2.442000,3.859856,-8.216203,-3.614672
2.462000,3.852186,-8.224649,-3.615492
2.482000,3.841957,-8.231505,-3.612473
2.502000,3.831966,-8.236940,-3.608479
2.522000,3.824534,-8.240873,-3.606224
2.542000,3.819979,-8.244437,-3.604542
2.562000,3.816826,-8.245895,-3.602854
2.582000,3.811114,-8.247054,-3.601661
2.602000,3.805289,-8.246673,-3.599211
2.622000,3.800438,-8.243390,-3.595301
2.642000,3.795566,-8.240716,-3.593250
2.662000,3.793563,-8.239783,-3.591626
2.682000,3.795300,-8.237280,-3.590905
2.702000,3.797029,-8.233150,-3.590502
2.722000,3.799645,-8.227816,-3.589193
2.742000,3.802734,-8.223971,-3.587610
2.762000,3.805424,-8.221291,-3.586234
2.782000,3.809285,-8.218613,-3.585255
2.802000,3.812768,-8.215435,-3.585005
2.822000,3.816265,-8.212959,-3.586025
2.842000,3.820408,-8.211634,-3.589214
2.862000,3.823144,-8.213818,-3.594335
2.882000,3.825112,-8.217081,-3.599643
2.902000,3.827514,-8.218300,-3.604277
2.922000,3.830108,-8.217136,-3.609725
2.942000,3.833155,-8.213399,-3.614402
2.962000,3.836722,-8.207688,-3.618217
2.982000,3.841857,-8.200095,-3.621276
3.002000,3.848522,-8.191022,-3.624304
3.022000,3.854736,-8.181513,-3.627996
3.042000,3.861487,-8.172338,-3.633998
3.062000,3.869344,-8.164978,-3.640562
3.082000,3.878271,-8.158459,-3.647659
3.102000,3.886822,-8.151836,-3.655068
3.122000,3.895742,-8.144802,-3.664534
3.142000,3.902250,-8.139920,-3.674791
3.162000,3.907640,-8.136500,-3.682144
3.182000,3.913168,-8.132947,-3.687532
3.202000,3.917467,-8.130794,-3.688749
3.222000,3.919377,-8.129165,-3.689283
3.242000,3.922584,-8.129204,-3.689452
3.262000,3.925353,-8.126968,-3.688327
3.282000,3.928165,-8.120900,-3.686088
3.302000,3.932602,-8.112618,-3.684709
3.322000,3.938047,-8.105209,-3.687199
3.342000,3.945473,-8.101130,-3.691627
3.362000,3.952251,-8.098554,-3.694526
3.382000,3.958529,-8.100575,-3.700557
3.402000,3.964170,-8.104684,-3.706287
3.422000,3.966475,-8.104729,-3.708873
3.442000,3.967536,-8.103217,-3.708798
3.462000,3.969089,-8.100978,-3.707623
3.482000,3.973427,-8.096319,-3.706604
3.502000,3.979255,-8.089720,-3.704900
3.522000,3.987418,-8.081631,-3.704889
3.542000,3.997559,-8.070653,-3.705884
3.562000,4.009872,-8.053202,-3.707396
3.582000,4.021991,-8.034943,-3.712316
3.602000,4.034564,-8.021727,-3.724538
3.622000,4.046076,-8.013335,-3.739390
3.642000,4.055750,-8.006105,-3.754860
3.662000,4.062239,-7.999115,-3.765507
3.682000,4.065382,-7.992052,-3.769798
3.702000,4.069117,-7.986591,-3.773232
3.722000,4.076166,-7.983339,-3.778907
3.742000,4.084773,-7.978109,-3.783878
3.762000,4.092193,-7.972788,-3.788106
3.782000,4.098844,-7.965437,-3.793033
3.802000,4.105811,-7.958614,-3.802125
3.822000,4.110027,-7.950998,-3.807151
3.842000,4.112813,-7.945564,-3.812558
3.862000,4.117582,-7.942220,-3.819468
3.882000,4.121513,-7.938168,-3.825326
3.902000,4.123345,-7.932719,-3.825524
3.922000,4.123484,-7.923565,-3.823110
3.942000,4.124866,-7.912780,-3.821917
3.962000,4.128724,-7.896236,-3.822173
3.982000,4.132160,-7.881415,-3.830542
4.002000,4.128739,-7.887691,-3.841246
4.022000,4.133204,-7.903983,-3.849880
4.042000,4.132406,-7.910919,-3.854764
4.094000,4.129413,-7.913787,-3.856822
4.114000,4.124822,-7.914855,-3.860966
4.134000,4.117476,-7.908969,-3.865428
4.154000,4.111879,-7.899264,-3.869128
4.174000,4.108804,-7.900597,-3.876884
4.194000,4.108537,-7.913480,-3.891697
4.214000,4.107075,-7.926259,-3.908757
4.234000,4.103570,-7.927920,-3.923539
4.254000,4.099668,-7.922382,-3.935587
4.274000,4.097194,-7.914697,-3.945959
4.294000,4.095032,-7.908118,-3.955293
4.314000,4.091791,-7.900073,-3.963888
4.334000,4.087504,-7.889187,-3.970194
4.354000,4.083189,-7.876710,-3.977298
4.374000,4.079012,-7.864382,-3.985984
4.394000,4.074733,-7.854548,-3.994726
4.414000,4.069540,-7.847398,-4.002112
4.434000,4.064446,-7.841971,-4.008682
4.454000,4.057991,-7.840309,-4.012673
4.474000,4.050140,-7.852790,-4.013702
4.494000,4.045240,-7.869647,-4.013525
4.514000,4.031914,-7.868427,-4.009231
4.534000,4.021403,-7.868943,-4.005099
4.554000,4.012002,-7.876014,-4.002709
4.574000,3.997428,-7.885552,-4.001252
4.594000,3.987477,-7.894660,-3.999786
4.614000,3.975351,-7.903341,-3.999125
4.634000,3.965310,-7.910212,-4.000195
4.654000,3.958864,-7.915266,-4.002115
4.674000,3.948772,-7.919120,-4.006004
4.694000,3.937010,-7.920230,-4.008920
4.714000,3.925915,-7.919390,-4.009795
4.734000,3.915434,-7.921072,-4.009561
4.754000,3.898570,-7.936959,-4.011555
4.774000,3.895162,-7.934204,-4.012045
4.794000,3.885803,-7.932003,-4.012339
4.814000,3.877662,-7.933009,-4.015383
4.834000,3.871926,-7.933741,-4.021079
4.854000,3.864810,-7.933723,-4.027866
4.874000,3.854006,-7.937848,-4.031904
4.894000,3.844532,-7.938747,-4.030035
4.914000,3.837139,-7.939661,-4.027827
4.934000,3.829916,-7.941356,-4.026598
4.954000,3.821234,-7.945117,-4.029476
4.974000,3.811919,-7.948960,-4.034192
4.994000,3.802602,-7.953268,-4.038742
5.014000,3.794360,-7.959447,-4.042455
5.034000,3.785817,-7.964249,-4.045174
5.054000,3.778844,-7.968810,-4.048177
5.074000,3.769427,-7.973661,-4.049714
5.094000,3.758357,-7.979853,-4.049726
5.114000,3.742752,-7.978752,-4.042413
5.134000,3.732690,-7.981995,-4.034718
5.154000,3.722346,-7.989516,-4.030475
5.174000,3.707580,-7.992891,-4.025533
5.194000,3.695955,-7.993910,-4.019466
5.214000,3.685092,-7.998749,-4.015736
5.234000,3.673380,-8.000284,-4.013407
5.254000,3.664658,-8.002954,-4.011508
5.274000,3.656838,-8.004422,-4.010011
5.294000,3.648761,-8.009300,-4.010301
5.314000,3.640477,-8.020905,-4.010277
5.334000,3.628349,-8.022003,-4.012145
5.354000,3.616774,-8.019595,-4.016268
5.374000,3.610725,-8.029086,-4.022074
5.394000,3.603348,-8.032951,-4.027894
5.414000,3.596524,-8.033402,-4.029418
5.434000,3.587374,-8.038278,-4.030519
5.454000,3.578746,-8.043080,-4.029695
5.474000,3.571641,-8.043837,-4.027873
5.494000,3.565757,-8.044011,-4.026116
5.514000,3.558255,-8.042412,-4.022606
5.534000,3.548027,-8.042457,-4.019107
5.554000,3.538332,-8.059237,-4.020815
5.574000,3.532732,-8.050829,-4.019225
5.594000,3.515841,-8.047222,-4.017436
5.614000,3.510155,-8.063284,-4.021986
5.634000,3.500408,-8.066448,-4.028596
5.654000,3.491045,-8.064840,-4.030376
5.674000,3.480532,-8.065978,-4.031229
5.694000,3.470387,-8.062148,-4.030373
5.714000,3.459673,-8.074183,-4.030220
5.734000,3.451173,-8.081093,-4.031505
5.754000,3.442758,-8.080775,-4.028563
5.774000,3.434858,-8.078928,-4.023880
5.794000,3.425409,-8.078105,-4.020224
5.814000,3.416223,-8.084760,-4.019909
5.834000,3.406050,-8.095467,-4.023452
5.854000,3.395573,-8.109059,-4.027726
5.874000,3.388600,-8.119308,-4.031622
5.894000,3.384234,-8.127658,-4.031217
5.914000,3.379170,-8.133674,-4.026028
5.934000,3.378083,-8.137092,-4.020699
5.954000,3.373607,-8.143252,-4.016716
5.974000,3.370373,-8.153399,-4.007722
5.994000,3.369231,-8.159181,-3.992018
6.014000,3.364580,-8.160907,-3.968570
6.034000,3.353775,-8.160701,-3.937383
6.054000,3.343413,-8.161622,-3.901649
6.074000,3.336579,-8.168304,-3.866056
