gyro_time_list,gyro_x_list,gyro_y_list,gyro_z_list
0.011000,-0.338000,0.112000,0.296000
0.031000,-0.349000,0.150000,0.351000
0.051000,-0.362000,0.168000,0.509000
0.071000,-0.391000,0.198000,0.690000
0.091000,-0.429000,0.296000,0.793000
0.111000,-0.465000,0.429000,0.908000
0.131000,-0.500000,0.583000,1.024000
0.151000,-0.547000,0.720000,1.080000
0.171000,-0.637000,0.861000,1.198000
0.191000,-0.737000,1.035000,1.316000
0.211000,-0.836000,1.216000,1.443000
0.231000,-0.939000,1.391000,1.578000
0.251000,-1.052000,1.560000,1.721000
0.271000,-1.179000,1.720000,1.868000
0.291000,-1.319000,1.866000,2.019000
0.311000,-1.466000,1.995000,2.171000
0.331000,-1.612000,2.103000,2.315000
0.351000,-1.752000,2.182000,2.443000
0.371000,-1.887000,2.224000,2.544000
0.391000,-2.008000,2.233000,2.609000
0.411000,-2.103000,2.217000,2.636000
0.431000,-2.163000,2.177000,2.632000
0.451000,-2.204000,2.119000,2.602000
0.471000,-2.238000,2.048000,2.551000
0.491000,-2.264000,1.968000,2.485000
0.511000,-2.284000,1.879000,2.413000
0.531000,-2.309000,1.778000,2.339000
0.551000,-2.349000,1.669000,2.262000
0.571000,-2.398000,1.558000,2.184000
0.591000,-2.441000,1.448000,2.106000
0.611000,-2.463000,1.340000,2.029000
0.631000,-2.460000,1.236000,1.952000
0.651000,-2.433000,1.140000,1.875000
0.671000,-2.388000,1.054000,1.797000
0.691000,-2.335000,0.975000,1.712000
0.711000,-2.273000,0.899000,1.621000
0.731000,-2.199000,0.828000,1.521000
0.751000,-2.110000,0.753000,1.408000
0.771000,-2.009000,0.670000,1.285000
0.791000,-1.906000,0.581000,1.145000
0.811000,-1.789000,0.486000,0.989000
0.831000,-1.632000,0.378000,0.825000
0.851000,-1.439000,0.260000,0.656000
0.871000,-1.233000,0.130000,0.483000
0.891000,-1.035000,-0.007000,0.309000
0.911000,-0.831000,-0.148000,0.142000
0.931000,-0.618000,-0.290000,-0.011000
0.951000,-0.420000,-0.436000,-0.149000
0.971000,-0.251000,-0.581000,-0.274000
0.991000,-0.110000,-0.719000,-0.387000
1.011000,0.007000,-0.852000,-0.490000
1.031000,0.096000,-0.986000,-0.586000
1.051000,0.153000,-1.128000,-0.680000
1.071000,0.190000,-1.273000,-0.771000
1.091000,0.231000,-1.397000,-0.875000
1.111000,0.298000,-1.489000,-0.984000
1.131000,0.393000,-1.554000,-1.086000
1.151000,0.491000,-1.605000,-1.175000
1.171000,0.569000,-1.647000,-1.250000
1.191000,0.622000,-1.684000,-1.306000
1.211000,0.650000,-1.716000,-1.345000
1.231000,0.663000,-1.739000,-1.359000
1.251000,0.657000,-1.748000,-1.352000
1.271000,0.629000,-1.732000,-1.331000
1.291000,0.572000,-1.694000,-1.294000
1.311000,0.486000,-1.643000,-1.232000
1.331000,0.398000,-1.560000,-1.149000
1.351000,0.300000,-1.383000,-1.033000
1.371000,0.148000,-1.095000,-0.916000
1.391000,0.006000,-0.777000,-0.778000
1.411000,0.039000,-0.435000,-0.641000
1.431000,0.262000,-0.109000,-0.461000
1.451000,0.265000,-0.450000,-0.349000
1.471000,0.118000,-0.784000,-0.442000
1.491000,0.188000,-1.094000,-0.322000
1.511000,0.384000,-0.932000,-0.472000
1.531000,0.306000,-0.661000,-0.572000
1.551000,0.074000,-0.439000,-0.587000
1.571000,-0.127000,-0.338000,-0.527000
1.591000,-0.250000,-0.291000,-0.454000
1.611000,-0.263000,-0.246000,-0.380000
1.631000,-0.193000,-0.203000,-0.334000
1.651000,-0.128000,-0.168000,-0.308000
1.671000,-0.104000,-0.148000,-0.291000
1.691000,-0.115000,-0.142000,-0.280000
1.711000,-0.132000,-0.146000,-0.270000
1.731000,-0.139000,-0.156000,-0.258000
1.751000,-0.138000,-0.165000,-0.247000
1.771000,-0.133000,-0.174000,-0.236000
1.791000,-0.128000,-0.184000,-0.225000
1.811000,-0.129000,-0.197000,-0.220000
1.831000,-0.131000,-0.201000,-0.217000
1.851000,-0.131000,-0.197000,-0.212000
1.871000,-0.129000,-0.194000,-0.208000
1.891000,-0.125000,-0.195000,-0.205000
1.911000,-0.116000,-0.197000,-0.201000
1.931000,-0.107000,-0.195000,-0.195000
1.951000,-0.101000,-0.194000,-0.189000
1.971000,-0.098000,-0.197000,-0.186000
1.991000,-0.096000,-0.195000,-0.182000
2.011000,-0.095000,-0.189000,-0.178000
2.031000,-0.096000,-0.183000,-0.174000
2.051000,-0.094000,-0.180000,-0.171000
2.071000,-0.091000,-0.175000,-0.167000
2.091000,-0.090000,-0.169000,-0.163000
2.111000,-0.088000,-0.164000,-0.159000
2.131000,-0.086000,-0.160000,-0.156000
2.151000,-0.082000,-0.157000,-0.152000
2.171000,-0.078000,-0.154000,-0.149000
2.191000,-0.076000,-0.150000,-0.146000
2.211000,-0.076000,-0.146000,-0.143000
2.231000,-0.074000,-0.143000,-0.141000
2.251000,-0.070000,-0.142000,-0.138000
2.271000,-0.063000,-0.142000,-0.133000
2.291000,-0.059000,-0.139000,-0.130000
2.311000,-0.058000,-0.136000,-0.127000
2.331000,-0.057000,-0.132000,-0.124000
2.351000,-0.057000,-0.129000,-0.121000
2.371000,-0.056000,-0.130000,-0.118000
2.391000,-0.054000,-0.132000,-0.116000
2.411000,-0.048000,-0.134000,-0.114000
2.431000,-0.041000,-0.135000,-0.111000
2.451000,-0.033000,-0.136000,-0.108000
2.471000,-0.025000,-0.136000,-0.106000
2.491000,-0.017000,-0.135000,-0.103000
2.511000,-0.011000,-0.135000,-0.100000
2.531000,-0.005000,-0.135000,-0.098000
2.551000,0.003000,-0.135000,-0.094000
2.571000,0.012000,-0.134000,-0.090000
2.591000,0.020000,-0.133000,-0.086000
2.611000,0.024000,-0.132000,-0.083000
2.631000,0.026000,-0.132000,-0.081000
2.651000,0.025000,-0.130000,-0.080000
2.671000,0.023000,-0.129000,-0.079000
2.691000,0.021000,-0.129000,-0.078000
2.711000,0.024000,-0.133000,-0.077000
2.731000,0.029000,-0.139000,-0.075000
2.751000,0.031000,-0.143000,-0.074000
2.771000,0.033000,-0.145000,-0.073000
2.791000,0.037000,-0.144000,-0.070000
2.811000,0.037000,-0.141000,-0.068000
2.831000,0.032000,-0.139000,-0.068000
2.851000,0.028000,-0.138000,-0.067000
2.871000,0.027000,-0.136000,-0.067000
2.891000,0.026000,-0.134000,-0.066000
2.911000,0.024000,-0.132000,-0.065000
2.931000,0.021000,-0.131000,-0.064000
2.951000,0.019000,-0.129000,-0.064000
2.971000,0.018000,-0.128000,-0.063000
2.991000,0.017000,-0.128000,-0.063000
3.011000,0.017000,-0.127000,-0.062000
3.031000,0.016000,-0.126000,-0.061000
3.051000,0.015000,-0.126000,-0.061000
3.071000,0.014000,-0.125000,-0.061000
3.091000,0.013000,-0.124000,-0.060000
3.111000,0.012000,-0.123000,-0.060000
3.131000,0.011000,-0.122000,-0.059000
3.151000,0.011000,-0.120000,-0.059000
3.171000,0.009000,-0.118000,-0.058000
3.191000,0.008000,-0.117000,-0.058000
3.211000,0.008000,-0.115000,-0.057000
3.231000,0.007000,-0.114000,-0.057000
3.251000,0.006000,-0.112000,-0.056000
3.271000,0.005000,-0.110000,-0.056000
3.291000,0.004000,-0.109000,-0.055000
3.311000,0.004000,-0.108000,-0.055000
3.331000,0.004000,-0.107000,-0.054000
3.351000,0.003000,-0.106000,-0.054000
3.371000,0.003000,-0.105000,-0.054000
3.391000,0.003000,-0.105000,-0.054000
3.411000,0.003000,-0.104000,-0.053000
3.431000,0.003000,-0.103000,-0.053000
3.451000,0.002000,-0.101000,-0.053000
3.471000,0.002000,-0.100000,-0.052000
3.491000,0.002000,-0.099000,-0.052000
3.511000,0.002000,-0.097000,-0.051000
3.531000,0.001000,-0.096000,-0.051000
3.551000,0.000000,-0.095000,-0.051000
3.571000,0.000000,-0.094000,-0.050000
3.591000,-0.001000,-0.092000,-0.050000
3.611000,-0.001000,-0.091000,-0.049000
3.631000,-0.002000,-0.090000,-0.049000
3.651000,-0.002000,-0.089000,-0.049000
3.671000,-0.003000,-0.089000,-0.049000
3.691000,-0.003000,-0.088000,-0.048000
3.711000,-0.003000,-0.087000,-0.048000
3.731000,-0.004000,-0.086000,-0.048000
3.751000,-0.004000,-0.085000,-0.048000
3.771000,-0.005000,-0.084000,-0.047000
3.791000,-0.005000,-0.083000,-0.047000
3.811000,-0.006000,-0.082000,-0.047000
3.831000,-0.006000,-0.081000,-0.047000
3.851000,-0.007000,-0.080000,-0.046000
3.871000,-0.007000,-0.079000,-0.046000
3.891000,-0.008000,-0.078000,-0.046000
3.911000,-0.008000,-0.077000,-0.045000
3.931000,-0.008000,-0.076000,-0.045000
3.951000,-0.009000,-0.075000,-0.045000
3.971000,-0.010000,-0.074000,-0.044000
3.991000,-0.010000,-0.073000,-0.044000
4.011000,-0.011000,-0.072000,-0.044000
4.031000,-0.011000,-0.071000,-0.044000
4.051000,-0.012000,-0.070000,-0.043000
4.071000,-0.012000,-0.069000,-0.043000
4.091000,-0.013000,-0.068000,-0.043000
4.111000,-0.013000,-0.067000,-0.042000
4.131000,-0.013000,-0.067000,-0.042000
4.151000,-0.014000,-0.066000,-0.042000
4.171000,-0.014000,-0.065000,-0.042000
4.191000,-0.014000,-0.064000,-0.041000
4.211000,-0.015000,-0.063000,-0.041000
4.231000,-0.015000,-0.062000,-0.041000
4.251000,-0.015000,-0.061000,-0.040000
4.271000,-0.016000,-0.061000,-0.040000
4.291000,-0.016000,-0.060000,-0.040000
4.311000,-0.016000,-0.059000,-0.040000
4.331000,-0.017000,-0.058000,-0.039000
4.351000,-0.017000,-0.058000,-0.039000
4.371000,-0.017000,-0.057000,-0.039000
4.391000,-0.017000,-0.056000,-0.039000
4.411000,-0.018000,-0.055000,-0.038000
4.431000,-0.018000,-0.055000,-0.038000
4.451000,-0.018000,-0.054000,-0.038000
4.471000,-0.018000,-0.053000,-0.038000
4.491000,-0.019000,-0.053000,-0.037000
4.511000,-0.019000,-0.052000,-0.037000
4.531000,-0.019000,-0.052000,-0.037000
4.551000,-0.019000,-0.051000,-0.037000
4.571000,-0.020000,-0.050000,-0.037000
4.591000,-0.020000,-0.050000,-0.036000
4.611000,-0.020000,-0.049000,-0.036000
4.631000,-0.020000,-0.048000,-0.036000
4.651000,-0.020000,-0.047000,-0.036000
4.671000,-0.021000,-0.046000,-0.036000
4.691000,-0.021000,-0.046000,-0.036000
4.711000,-0.021000,-0.046000,-0.036000
4.731000,-0.021000,-0.045000,-0.036000
4.751000,-0.022000,-0.045000,-0.036000
4.771000,-0.023000,-0.044000,-0.035000
4.791000,-0.024000,-0.043000,-0.034000
4.811000,-0.025000,-0.042000,-0.033000
4.831000,-0.026000,-0.041000,-0.033000
4.851000,-0.026000,-0.041000,-0.032000
4.871000,-0.026000,-0.040000,-0.032000
4.891000,-0.026000,-0.039000,-0.031000
4.911000,-0.026000,-0.038000,-0.030000
4.931000,-0.026000,-0.038000,-0.030000
4.951000,-0.026000,-0.037000,-0.030000
4.971000,-0.025000,-0.036000,-0.030000
4.991000,-0.025000,-0.036000,-0.029000
5.011000,-0.025000,-0.035000,-0.029000
5.031000,-0.025000,-0.035000,-0.029000
5.051000,-0.024000,-0.034000,-0.029000
5.071000,-0.024000,-0.034000,-0.029000
5.091000,-0.024000,-0.033000,-0.029000
5.111000,-0.024000,-0.032000,-0.029000
5.131000,-0.024000,-0.032000,-0.029000
5.151000,-0.024000,-0.031000,-0.029000
5.171000,-0.024000,-0.031000,-0.029000
5.191000,-0.024000,-0.030000,-0.028000
5.211000,-0.024000,-0.030000,-0.028000
5.231000,-0.024000,-0.029000,-0.028000
5.251000,-0.024000,-0.029000,-0.028000
5.271000,-0.024000,-0.028000,-0.028000
5.291000,-0.024000,-0.028000,-0.028000
5.311000,-0.024000,-0.027000,-0.027000
5.331000,-0.023000,-0.026000,-0.027000
5.351000,-0.023000,-0.026000,-0.027000
5.371000,-0.023000,-0.025000,-0.027000
5.391000,-0.022000,-0.024000,-0.026000
5.411000,-0.022000,-0.023000,-0.025000
5.431000,-0.021000,-0.022000,-0.025000
5.451000,-0.021000,-0.022000,-0.025000
5.471000,-0.021000,-0.021000,-0.025000
5.491000,-0.022000,-0.021000,-0.025000
5.511000,-0.024000,-0.021000,-0.025000
5.531000,-0.027000,-0.021000,-0.025000
5.551000,-0.029000,-0.021000,-0.024000
5.571000,-0.030000,-0.021000,-0.025000
5.591000,-0.031000,-0.022000,-0.025000
5.611000,-0.032000,-0.021000,-0.026000
5.631000,-0.031000,-0.021000,-0.026000
5.651000,-0.030000,-0.021000,-0.026000
5.671000,-0.030000,-0.020000,-0.026000
5.691000,-0.030000,-0.020000,-0.026000
5.711000,-0.031000,-0.019000,-0.026000
5.731000,-0.031000,-0.019000,-0.026000
5.751000,-0.030000,-0.019000,-0.026000
5.771000,-0.030000,-0.018000,-0.026000
5.791000,-0.030000,-0.018000,-0.026000
5.811000,-0.030000,-0.017000,-0.026000
5.831000,-0.030000,-0.017000,-0.025000
5.851000,-0.029000,-0.016000,-0.025000
5.871000,-0.029000,-0.016000,-0.025000
5.891000,-0.028000,-0.016000,-0.025000
5.911000,-0.028000,-0.015000,-0.025000
5.931000,-0.027000,-0.015000,-0.025000
5.951000,-0.027000,-0.015000,-0.024000
5.971000,-0.028000,-0.014000,-0.024000
5.991000,-0.028000,-0.014000,-0.024000
6.011000,-0.028000,-0.014000,-0.024000
6.031000,-0.028000,-0.014000,-0.024000
6.051000,-0.028000,-0.014000,-0.024000
6.071000,-0.028000,-0.014000,-0.024000
6.091000,-0.028000,-0.013000,-0.024000
6.111000,-0.029000,-0.013000,-0.023000
6.131000,-0.029000,-0.013000,-0.023000
6.151000,-0.030000,-0.013000,-0.023000
6.171000,-0.030000,-0.013000,-0.023000
6.191000,-0.031000,-0.012000,-0.023000
6.211000,-0.032000,-0.012000,-0.023000
6.231000,-0.032000,-0.012000,-0.023000
6.251000,-0.032000,-0.012000,-0.023000
6.271000,-0.033000,-0.012000,-0.022000
6.291000,-0.033000,-0.011000,-0.022000
6.311000,-0.033000,-0.011000,-0.022000
6.331000,-0.033000,-0.011000,-0.022000
6.351000,-0.033000,-0.011000,-0.022000
6.371000,-0.034000,-0.010000,-0.022000
6.391000,-0.034000,-0.010000,-0.022000
6.411000,-0.035000,-0.010000,-0.022000
6.431000,-0.035000,-0.010000,-0.022000
6.451000,-0.035000,-0.009000,-0.022000
6.471000,-0.035000,-0.009000,-0.022000
6.491000,-0.036000,-0.009000,-0.022000
6.511000,-0.036000,-0.009000,-0.022000
6.531000,-0.037000,-0.009000,-0.022000
6.551000,-0.037000,-0.008000,-0.022000
6.571000,-0.037000,-0.008000,-0.022000
6.591000,-0.038000,-0.007000,-0.022000
6.611000,-0.038000,-0.007000,-0.022000
6.631000,-0.038000,-0.007000,-0.022000
6.651000,-0.038000,-0.006000,-0.022000
6.671000,-0.038000,-0.006000,-0.022000
6.691000,-0.038000,-0.006000,-0.021000
6.711000,-0.038000,-0.006000,-0.021000
6.731000,-0.039000,-0.005000,-0.021000
6.751000,-0.039000,-0.005000,-0.021000
6.771000,-0.039000,-0.004000,-0.021000
6.791000,-0.040000,-0.004000,-0.021000
6.811000,-0.040000,-0.003000,-0.022000
6.831000,-0.041000,-0.003000,-0.022000
6.851000,-0.041000,-0.003000,-0.021000
6.871000,-0.042000,-0.002000,-0.021000
6.891000,-0.043000,-0.001000,-0.021000
6.911000,-0.043000,-0.001000,-0.021000
6.931000,-0.043000,-0.002000,-0.021000
6.951000,-0.044000,-0.002000,-0.021000
6.971000,-0.045000,-0.001000,-0.021000
6.991000,-0.045000,-0.001000,-0.021000
7.011000,-0.045000,-0.002000,-0.021000
7.031000,-0.045000,-0.001000,-0.021000
7.051000,-0.045000,0.000000,-0.021000
7.071000,-0.045000,0.001000,-0.021000
7.091000,-0.045000,0.000000,-0.022000
7.111000,-0.045000,0.001000,-0.022000
7.131000,-0.045000,0.001000,-0.021000
7.151000,-0.045000,0.002000,-0.021000
7.171000,-0.046000,0.002000,-0.021000
7.191000,-0.046000,0.002000,-0.021000
7.211000,-0.045000,0.002000,-0.021000
7.231000,-0.045000,0.002000,-0.021000
7.251000,-0.046000,0.002000,-0.021000
7.271000,-0.046000,0.003000,-0.021000
7.291000,-0.045000,0.003000,-0.021000
7.311000,-0.045000,0.003000,-0.021000
7.331000,-0.045000,0.003000,-0.021000
7.351000,-0.045000,0.004000,-0.021000
7.371000,-0.045000,0.004000,-0.021000
7.391000,-0.045000,0.004000,-0.021000
7.411000,-0.045000,0.004000,-0.021000
7.431000,-0.045000,0.004000,-0.021000
7.451000,-0.045000,0.004000,-0.021000
7.471000,-0.046000,0.004000,-0.021000
7.491000,-0.046000,0.005000,-0.021000
7.511000,-0.046000,0.005000,-0.021000
7.531000,-0.045000,0.005000,-0.021000
7.551000,-0.046000,0.005000,-0.021000
7.571000,-0.046000,0.006000,-0.021000
7.591000,-0.046000,0.006000,-0.021000
7.611000,-0.046000,0.006000,-0.021000
7.631000,-0.046000,0.006000,-0.021000
7.651000,-0.046000,0.006000,-0.021000
7.671000,-0.046000,0.006000,-0.021000
7.691000,-0.046000,0.006000,-0.021000
7.711000,-0.046000,0.007000,-0.021000
7.731000,-0.046000,0.007000,-0.020000
7.751000,-0.046000,0.007000,-0.020000
7.771000,-0.046000,0.007000,-0.020000
7.791000,-0.046000,0.007000,-0.020000
7.811000,-0.046000,0.008000,-0.020000
7.831000,-0.046000,0.008000,-0.020000
7.851000,-0.046000,0.008000,-0.020000
7.871000,-0.047000,0.008000,-0.020000
7.891000,-0.047000,0.009000,-0.020000
7.911000,-0.047000,0.009000,-0.020000
7.931000,-0.047000,0.009000,-0.020000
7.951000,-0.047000,0.009000,-0.020000
7.971000,-0.047000,0.009000,-0.019000
7.991000,-0.047000,0.010000,-0.019000
