accel_time_list,accel_x_list,accel_y_list,accel_z_list
0.010000,-8.755595,-1.881842,4.355053
0.030000,-9.223661,-2.711433,3.876213
0.050000,-8.401521,-2.663383,3.702681
0.070000,-7.575315,-2.036832,3.690892
0.090000,-7.754361,-2.134645,3.618236
0.110000,-7.985146,-2.275685,3.583095
0.130000,-8.012120,-2.193231,3.574263
0.150000,-8.070990,-2.034245,3.545305
0.170000,-8.158193,-1.950945,3.518220
0.190000,-8.212864,-1.922482,3.501640
0.210000,-8.267190,-1.902292,3.492049
0.230000,-8.324033,-1.889096,3.488709
0.250000,-8.371236,-1.890813,3.474526
0.270000,-8.408515,-1.897238,3.455620
0.290000,-8.438189,-1.895681,3.436309
0.310000,-8.463902,-1.888452,3.414839
0.330000,-8.496789,-1.882674,3.393003
0.350000,-8.531467,-1.875496,3.371665
0.370000,-8.561798,-1.866880,3.349326
0.390000,-8.589442,-1.861730,3.329066
0.410000,-8.617215,-1.859311,3.311183
0.430000,-8.644299,-1.860029,3.294800
0.450000,-8.663540,-1.862395,3.276500
0.470000,-8.675146,-1.860153,3.258983
0.490000,-8.679008,-1.851507,3.245239
0.510000,-8.678908,-1.837470,3.232838
0.530000,-8.675598,-1.822628,3.218030
0.550000,-8.668892,-1.808913,3.201949
0.570000,-8.662930,-1.796897,3.187394
0.590000,-8.660611,-1.786916,3.172292
0.610000,-8.660995,-1.776130,3.156037
0.630000,-8.659448,-1.766869,3.141804
0.650000,-8.658230,-1.758925,3.129730
0.670000,-8.659100,-1.752552,3.120528
0.690000,-8.665771,-1.747047,3.112803
0.710000,-8.674667,-1.741713,3.105232
0.730000,-8.683355,-1.735317,3.100898
0.750000,-8.691384,-1.725894,3.097605
0.770000,-8.701801,-1.713660,3.095465
0.790000,-8.713168,-1.697666,3.091403
0.810000,-8.723680,-1.680608,3.086306
0.830000,-8.732602,-1.665391,3.082002
0.850000,-8.742423,-1.652565,3.077844
0.870000,-8.750634,-1.638780,3.071566
0.890000,-8.755218,-1.622999,3.064551
0.910000,-8.755618,-1.605603,3.057451
0.930000,-8.753921,-1.587994,3.051523
0.950000,-8.751494,-1.569852,3.046216
0.970000,-8.750011,-1.550227,3.040554
0.990000,-8.749156,-1.530659,3.034093
1.010000,-8.747431,-1.511143,3.028490
1.030000,-8.747698,-1.491207,3.023647
1.050000,-8.747567,-1.471729,3.018990
1.070000,-8.746305,-1.454660,3.016034
1.090000,-8.744023,-1.439960,3.012721
1.110000,-8.739772,-1.427777,3.011094
1.130000,-8.735491,-1.414948,3.010703
1.150000,-8.729857,-1.401544,3.010814
1.170000,-8.722498,-1.388390,3.012010
1.190000,-8.715501,-1.375939,3.015218
1.210000,-8.707962,-1.363564,3.019289
1.230000,-8.700821,-1.353489,3.022854
1.250000,-8.694555,-1.346026,3.027899
1.270000,-8.691649,-1.339473,3.034603
1.290000,-8.691958,-1.334834,3.043419
1.310000,-8.692572,-1.330778,3.054865
1.330000,-8.688980,-1.326265,3.068749
1.350000,-8.680411,-1.320941,3.084590
1.370000,-8.667111,-1.314798,3.103582
1.390000,-8.652987,-1.310621,3.126647
1.410000,-8.637382,-1.308809,3.151239
1.430000,-8.618497,-1.306072,3.178587
1.450000,-8.594402,-1.303225,3.210510
1.470000,-8.567022,-1.301189,3.242592
1.490000,-8.537259,-1.302112,3.273355
1.510000,-8.505044,-1.306453,3.309552
1.530000,-8.470410,-1.310528,3.352118
1.550000,-8.433195,-1.315285,3.395929
1.570000,-8.394103,-1.327024,3.437137
1.590000,-8.356383,-1.347024,3.480825
1.610000,-8.324987,-1.366184,3.535404
1.630000,-8.303234,-1.378096,3.596373
1.650000,-8.283104,-1.385499,3.651829
1.670000,-8.258142,-1.397778,3.706390
1.690000,-8.236592,-1.421034,3.780727
1.710000,-8.220778,-1.449953,3.868135
1.730000,-8.199940,-1.476693,3.955447
1.750000,-8.173008,-1.510486,4.047837
1.770000,-8.134406,-1.550526,4.148132
1.790000,-8.083163,-1.587213,4.259243
1.810000,-8.022521,-1.626506,4.371254
1.830000,-7.942035,-1.662459,4.475322
1.850000,-7.837135,-1.695970,4.581255
1.870000,-7.712577,-1.728386,4.680988
1.890000,-7.566199,-1.758950,4.752694
1.910000,-7.409349,-1.779171,4.791751
1.930000,-7.273018,-1.777610,4.773827
1.950000,-7.144164,-1.765586,4.703612
1.970000,-6.985577,-1.752318,4.627039
1.990000,-6.818281,-1.748229,4.567620
2.017000,-6.686633,-1.756196,4.500433
2.037000,-6.555954,-1.750011,4.406663
2.057000,-6.459700,-1.734392,4.289976
2.077000,-6.460832,-1.699101,4.148820
2.097000,-6.589828,-1.659239,3.973190
2.117000,-6.809154,-1.609788,3.738268
2.137000,-7.071983,-1.553856,3.376597
2.157000,-7.361773,-1.498633,3.280279
2.177000,-9.974787,-2.284503,5.469634
2.197000,-6.810877,-0.796079,2.264632
2.217000,3.864311,1.898346,2.876904
2.237000,-0.222948,-1.002742,2.586868
2.257000,-2.580838,-6.078403,2.474818
2.277000,-1.168056,-9.373415,2.850111
2.297000,-1.723896,-6.719741,3.630363
2.317000,-2.203254,-4.284747,4.415083
2.337000,-1.611221,-2.703238,5.129962
2.357000,-1.208593,-3.271163,5.653927
2.377000,-0.926013,-3.701364,6.032301
2.397000,-0.506746,-3.414363,6.533816
2.417000,-0.311173,-3.121598,6.854928
2.437000,-0.697875,-3.690875,6.913003
2.457000,-0.926704,-4.241996,7.004661
2.477000,-0.802914,-4.306112,7.138973
2.497000,-0.751018,-4.350702,7.369652
2.517000,-0.746893,-4.502319,7.510501
2.537000,-0.685841,-4.520391,7.587376
2.557000,-0.686564,-4.439724,7.753849
2.577000,-0.682268,-4.447246,7.873485
2.597000,-0.691137,-4.557480,7.940246
2.617000,-0.695705,-4.677397,7.983591
2.637000,-0.663963,-4.654078,8.048601
2.657000,-0.621968,-4.607247,8.141116
2.677000,-0.597343,-4.658652,8.203413
2.697000,-0.583198,-4.775883,8.238862
2.717000,-0.573245,-4.852957,8.274615
2.737000,-0.575038,-4.861992,8.323312
2.757000,-0.584616,-4.864262,8.363293
2.777000,-0.594969,-4.882386,8.403116
2.797000,-0.592195,-4.922891,8.424897
2.817000,-0.588921,-4.976439,8.440846
2.837000,-0.590108,-5.028588,8.461041
2.857000,-0.585162,-5.044684,8.485955
2.877000,-0.578715,-5.048507,8.511477
2.897000,-0.574589,-5.072257,8.529774
2.917000,-0.571460,-5.087304,8.549660
2.937000,-0.563888,-5.109808,8.564491
2.957000,-0.557165,-5.130867,8.577396
2.977000,-0.557047,-5.138148,8.594268
2.997000,-0.559468,-5.150835,8.612372
3.017000,-0.557478,-5.168852,8.626444
3.037000,-0.551925,-5.179972,8.641214
3.057000,-0.549301,-5.188651,8.655303
3.077000,-0.552587,-5.196242,8.672615
3.097000,-0.552893,-5.201760,8.687447
3.117000,-0.548246,-5.209268,8.699013
3.137000,-0.542348,-5.215317,8.710344
3.157000,-0.539073,-5.220384,8.722719
3.177000,-0.538956,-5.231019,8.734075
3.197000,-0.537528,-5.241054,8.742797
3.217000,-0.536161,-5.241225,8.753742
3.237000,-0.533738,-5.245928,8.763619
3.257000,-0.531067,-5.258088,8.770635
3.277000,-0.529278,-5.258023,8.779764
3.297000,-0.529465,-5.261430,8.792365
3.317000,-0.527916,-5.270026,8.798705
3.337000,-0.527756,-5.274126,8.807890
3.357000,-0.527331,-5.275694,8.815534
3.377000,-0.525331,-5.278976,8.822696
3.397000,-0.523227,-5.284165,8.832489
3.417000,-0.523161,-5.282734,8.842797
3.437000,-0.522174,-5.280703,8.850133
3.457000,-0.519776,-5.282830,8.856244
3.477000,-0.520869,-5.294702,8.863096
3.497000,-0.518288,-5.299844,8.869851
3.517000,-0.516537,-5.294734,8.880126
3.537000,-0.514763,-5.290399,8.890347
3.557000,-0.509948,-5.285909,8.898540
3.577000,-0.509722,-5.287173,8.908432
3.597000,-0.507943,-5.292181,8.913592
3.617000,-0.507059,-5.287701,8.920984
3.637000,-0.502411,-5.272915,8.930725
3.657000,-0.500955,-5.269088,8.940154
3.677000,-0.500313,-5.271955,8.946132
3.697000,-0.498442,-5.272381,8.951580
3.717000,-0.495082,-5.269641,8.955860
3.737000,-0.493161,-5.266382,8.963963
3.757000,-0.495633,-5.269833,8.970978
3.777000,-0.496490,-5.270814,8.975516
3.797000,-0.493222,-5.263391,8.980890
3.817000,-0.491933,-5.260885,8.987986
3.837000,-0.491664,-5.270570,8.991351
3.857000,-0.491935,-5.281606,8.992943
3.877000,-0.488883,-5.281398,8.994947
3.897000,-0.486515,-5.278807,9.001211
3.917000,-0.487146,-5.284208,9.004807
3.937000,-0.487642,-5.288043,9.007562
3.957000,-0.485637,-5.287856,9.009437
3.977000,-0.484646,-5.287250,9.013919
3.997000,-0.484344,-5.293088,9.015960
4.029000,-0.483304,-5.290164,9.019831
4.049000,-0.481977,-5.291154,9.024347
4.069000,-0.480484,-5.295293,9.026279
4.089000,-0.479050,-5.296103,9.029012
4.109000,-0.478334,-5.297137,9.031990
4.129000,-0.477390,-5.297995,9.035329
4.149000,-0.475848,-5.299813,9.037861
4.169000,-0.474551,-5.300619,9.039852
4.189000,-0.474255,-5.299806,9.043287
4.209000,-0.473497,-5.300019,9.045879
4.229000,-0.472729,-5.300227,9.047917
4.249000,-0.472002,-5.302536,9.050516
4.269000,-0.470987,-5.306019,9.051827
4.289000,-0.470167,-5.306124,9.053903
4.309000,-0.468942,-5.305081,9.056774
4.329000,-0.468503,-5.306732,9.059058
4.349000,-0.467585,-5.308002,9.060908
4.369000,-0.467168,-5.310567,9.062801
4.389000,-0.466375,-5.310905,9.064735
4.409000,-0.465350,-5.310795,9.067245
4.429000,-0.464504,-5.311509,9.069333
4.449000,-0.463857,-5.314166,9.070539
4.469000,-0.462714,-5.316117,9.071487
4.489000,-0.462636,-5.315882,9.073651
4.509000,-0.461744,-5.316938,9.075493
4.529000,-0.460814,-5.318366,9.077020
4.549000,-0.460061,-5.318333,9.078943
4.569000,-0.459171,-5.319359,9.080334
4.589000,-0.458697,-5.321328,9.081402
4.609000,-0.457989,-5.322272,9.082864
4.629000,-0.457312,-5.324355,9.083742
4.649000,-0.456473,-5.326394,9.085059
4.669000,-0.455261,-5.327095,9.085955
4.689000,-0.454539,-5.327598,9.087559
4.709000,-0.453393,-5.327856,9.089148
4.729000,-0.452953,-5.330003,9.090074
4.749000,-0.452661,-5.332296,9.091039
4.769000,-0.452013,-5.333466,9.092018
4.789000,-0.451156,-5.334001,9.093083
4.809000,-0.450260,-5.334674,9.094521
4.829000,-0.449564,-5.335221,9.096566
4.849000,-0.449163,-5.335451,9.098017
4.869000,-0.448215,-5.337091,9.098351
4.889000,-0.447635,-5.339745,9.099353
4.909000,-0.446774,-5.339618,9.100967
4.929000,-0.445921,-5.339038,9.102135
4.949000,-0.445484,-5.341265,9.103410
4.969000,-0.444501,-5.343470,9.103786
4.989000,-0.443623,-5.344934,9.104518
5.009000,-0.442970,-5.346192,9.105482
5.029000,-0.442563,-5.346457,9.106724
5.049000,-0.442087,-5.347220,9.107809
5.069000,-0.441186,-5.349222,9.108548
5.089000,-0.440677,-5.349312,9.109975
5.109000,-0.440196,-5.348611,9.111603
5.129000,-0.439697,-5.349306,9.112879
5.149000,-0.439179,-5.351334,9.113640
5.169000,-0.437684,-5.352289,9.113723
5.189000,-0.437281,-5.353665,9.115049
5.209000,-0.436763,-5.355195,9.115262
5.229000,-0.436609,-5.356375,9.116502
5.249000,-0.435811,-5.355986,9.117322
5.269000,-0.434589,-5.356415,9.118301
5.289000,-0.434241,-5.357965,9.119271
5.309000,-0.433490,-5.359022,9.119824
5.329000,-0.432723,-5.360139,9.120708
5.349000,-0.431460,-5.362921,9.120528
5.369000,-0.430306,-5.364334,9.120638
5.389000,-0.429307,-5.365446,9.121249
5.409000,-0.429323,-5.368654,9.121735
5.429000,-0.428406,-5.370010,9.121185
5.449000,-0.427354,-5.370251,9.122127
5.469000,-0.427031,-5.373866,9.121957
5.489000,-0.426232,-5.375410,9.122292
5.509000,-0.425777,-5.376028,9.123676
5.529000,-0.424871,-5.377358,9.123610
5.549000,-0.424357,-5.377789,9.124719
5.569000,-0.424351,-5.377618,9.125815
5.589000,-0.422885,-5.373569,9.127452
5.609000,-0.421984,-5.375068,9.127755
5.629000,-0.420949,-5.378371,9.127242
5.649000,-0.421120,-5.378552,9.129679
5.669000,-0.419495,-5.376577,9.130630
5.689000,-0.418005,-5.378118,9.130807
5.709000,-0.418063,-5.380768,9.132465
5.729000,-0.418025,-5.381835,9.134084
5.749000,-0.417220,-5.384233,9.134130
5.769000,-0.415514,-5.386080,9.133576
5.789000,-0.415118,-5.386687,9.136500
5.809000,-0.413887,-5.385134,9.140041
5.829000,-0.413747,-5.385750,9.141344
5.849000,-0.411453,-5.381357,9.143496
5.869000,-0.407961,-5.374542,9.146176
5.889000,-0.404384,-5.369902,9.147418
5.909000,-0.402543,-5.365020,9.151497
5.929000,-0.402683,-5.361026,9.155606
5.949000,-0.399447,-5.357862,9.157041
5.969000,-0.395907,-5.358919,9.154821
5.989000,-0.391302,-5.354554,9.156264
6.009000,-0.390549,-5.354974,9.158961
6.056000,-0.392677,-5.350481,9.159573
6.076000,-0.389181,-5.349122,9.162069
6.096000,-0.386965,-5.358143,9.159704
6.116000,-0.386950,-5.365710,9.157387
6.136000,-0.389880,-5.367742,9.161510
6.156000,-0.387394,-5.368245,9.160012
6.176000,-0.387542,-5.376788,9.160876
6.196000,-0.385439,-5.379452,9.159864
6.216000,-0.381871,-5.379240,9.156037
6.236000,-0.380160,-5.379987,9.159958
6.256000,-0.379830,-5.384175,9.159338
6.276000,-0.377324,-5.384155,9.157216
6.296000,-0.376735,-5.381214,9.161221
6.316000,-0.376009,-5.388119,9.158721
6.336000,-0.370764,-5.402281,9.150404
6.356000,-0.370983,-5.407036,9.150574
6.376000,-0.373809,-5.412006,9.154094
6.396000,-0.373088,-5.412091,9.153461
6.416000,-0.368471,-5.408751,9.151709
6.436000,-0.367228,-5.407456,9.155959
6.456000,-0.371649,-5.405814,9.161317
6.476000,-0.370829,-5.398922,9.161736
6.496000,-0.367288,-5.396743,9.162512
6.516000,-0.365722,-5.396597,9.165027
6.536000,-0.367404,-5.390204,9.170652
6.056000,-0.392677,-5.350481,9.159573
6.076000,-0.389181,-5.349122,9.162069
6.096000,-0.386965,-5.358143,9.159704
6.116000,-0.386950,-5.365710,9.157387
6.136000,-0.389880,-5.367742,9.161510
6.156000,-0.387394,-5.368245,9.160012
6.176000,-0.387542,-5.376788,9.160876
6.196000,-0.385439,-5.379452,9.159864
6.216000,-0.381871,-5.379240,9.156037
6.236000,-0.380160,-5.379987,9.159958
6.256000,-0.379830,-5.384175,9.159338
6.276000,-0.377324,-5.384155,9.157216
6.296000,-0.376735,-5.381214,9.161221
6.316000,-0.376009,-5.388119,9.158721
6.336000,-0.370764,-5.402281,9.150404
6.356000,-0.370983,-5.407036,9.150574
6.376000,-0.373809,-5.412006,9.154094
6.396000,-0.373088,-5.412091,9.153461
6.416000,-0.368471,-5.408751,9.151709
6.436000,-0.367228,-5.407456,9.155959
6.456000,-0.371649,-5.405814,9.161317
6.476000,-0.370829,-5.398922,9.161736
6.496000,-0.367288,-5.396743,9.162512
6.516000,-0.365722,-5.396597,9.165027
6.536000,-0.367404,-5.390204,9.170652
