gyro_time_list,gyro_x_list,gyro_y_list,gyro_z_list
0.325000,0.357859,0.087266,0.114579
0.345000,0.437531,0.101655,0.142424
0.365000,0.504673,0.119252,0.168478
0.385000,0.557233,0.137565,0.191368
0.405000,0.592689,0.156234,0.211696
0.425000,0.608134,0.173691,0.230397
0.445000,0.602818,0.190389,0.248217
0.465000,0.579476,0.206506,0.264858
0.485000,0.542118,0.222229,0.280197
0.505000,0.494784,0.236404,0.294561
0.525000,0.441290,0.248420,0.308530
0.545000,0.384778,0.259048,0.321778
0.565000,0.328474,0.268557,0.333397
0.585000,0.285519,0.274839,0.345128
0.605000,0.256052,0.279542,0.358182
0.625000,0.227920,0.284343,0.371332
0.645000,0.193908,0.289620,0.383175
0.665000,0.156353,0.295250,0.393029
0.685000,0.122130,0.300690,0.401053
0.705000,0.095962,0.305483,0.407784
0.725000,0.078026,0.309668,0.413491
0.745000,0.067531,0.312865,0.418139
0.765000,0.062489,0.315040,0.422122
0.785000,0.061426,0.316022,0.425813
0.805000,0.061554,0.315676,0.429231
0.825000,0.060502,0.314031,0.431939
0.845000,0.058478,0.311056,0.433416
0.865000,0.056336,0.306697,0.433216
0.885000,0.053407,0.300344,0.431210
0.905000,0.048919,0.291547,0.426688
0.925000,0.040908,0.280704,0.419468
0.945000,0.028931,0.269090,0.408931
0.965000,0.016486,0.256089,0.395271
0.985000,0.006082,0.240821,0.379325
1.005000,-0.001730,0.223673,0.360387
1.025000,-0.005599,0.204646,0.337236
1.045000,-0.004946,0.183247,0.309381
1.065000,-0.001029,0.159432,0.277901
1.085000,0.006513,0.133450,0.244711
1.105000,0.019673,0.105114,0.211711
1.125000,0.037787,0.073946,0.179695
1.145000,0.057412,0.040358,0.147392
1.165000,0.076002,0.005368,0.113432
1.185000,0.093965,-0.031070,0.079110
1.205000,0.111512,-0.069798,0.045320
1.225000,0.129333,-0.110902,0.011983
1.245000,0.150531,-0.152839,-0.020933
1.265000,0.174810,-0.195953,-0.051582
1.285000,0.196284,-0.240588,-0.080028
1.305000,0.211206,-0.286790,-0.107754
1.325000,0.223686,-0.333384,-0.134188
1.345000,0.239804,-0.380041,-0.158908
1.365000,0.258599,-0.426190,-0.182587
1.385000,0.274937,-0.471508,-0.207287
1.405000,0.287244,-0.517820,-0.233276
1.425000,0.301598,-0.566025,-0.258487
1.445000,0.325046,-0.613439,-0.280974
1.465000,0.354954,-0.658211,-0.301692
1.485000,0.383922,-0.700732,-0.319577
1.505000,0.405133,-0.741473,-0.335586
1.525000,0.418876,-0.780021,-0.351881
1.545000,0.433146,-0.815966,-0.366321
1.565000,0.453058,-0.845785,-0.380137
1.585000,0.478796,-0.872590,-0.390849
1.605000,0.501572,-0.901240,-0.390471
1.625000,0.505033,-0.925803,-0.382142
1.645000,0.485117,-0.943008,-0.372670
1.665000,0.449202,-0.952048,-0.362309
1.685000,0.412134,-0.937787,-0.333513
1.705000,0.374240,-0.887553,-0.288489
1.725000,0.338693,-0.799607,-0.226372
1.745000,0.320485,-0.671355,-0.165470
1.765000,0.253591,-0.806620,-0.147904
1.785000,0.122515,-0.951919,-0.269298
1.805000,0.260126,-1.102727,-0.385656
1.825000,0.091947,-1.058654,-0.473781
1.845000,-0.091657,-0.844093,-0.488832
1.865000,-0.288712,-0.716930,-0.494386
1.885000,-0.193774,-0.635395,-0.523253
1.905000,-0.148548,-0.594988,-0.489633
1.925000,-0.118403,-0.584668,-0.461928
1.945000,-0.118405,-0.577255,-0.414136
1.965000,-0.084471,-0.571179,-0.372326
1.985000,-0.038003,-0.557198,-0.337519
2.005000,-0.019997,-0.535445,-0.326459
2.025000,-0.067614,-0.509635,-0.325874
2.045000,-0.140974,-0.483098,-0.321698
2.065000,-0.220050,-0.456959,-0.309267
2.085000,-0.263915,-0.435207,-0.300260
2.105000,-0.274149,-0.417777,-0.291769
2.125000,-0.273084,-0.397212,-0.285960
2.145000,-0.267324,-0.382855,-0.282783
2.165000,-0.278491,-0.370354,-0.273551
2.185000,-0.286297,-0.352773,-0.259527
2.205000,-0.283129,-0.331018,-0.247162
2.225000,-0.293668,-0.306926,-0.237172
2.245000,-0.310920,-0.286458,-0.233488
2.265000,-0.324826,-0.274202,-0.233827
2.285000,-0.334682,-0.269846,-0.233264
2.305000,-0.335220,-0.268700,-0.230440
2.342000,-0.327563,-0.262524,-0.226277
2.362000,-0.324881,-0.252653,-0.222450
2.382000,-0.327311,-0.238228,-0.218924
2.402000,-0.331911,-0.222856,-0.215508
2.422000,-0.335879,-0.210280,-0.211618
2.442000,-0.338493,-0.202751,-0.207727
2.462000,-0.339360,-0.199395,-0.203264
2.482000,-0.333334,-0.198155,-0.198003
2.502000,-0.319025,-0.195502,-0.192316
2.522000,-0.306977,-0.190486,-0.187802
2.542000,-0.302529,-0.184288,-0.184580
2.562000,-0.300238,-0.178071,-0.182380
2.582000,-0.295427,-0.172923,-0.180521
2.602000,-0.288926,-0.169016,-0.178355
2.622000,-0.282454,-0.165401,-0.175915
2.642000,-0.277650,-0.161268,-0.173302
2.662000,-0.274185,-0.156673,-0.170878
2.682000,-0.271115,-0.152216,-0.168850
2.702000,-0.268195,-0.148619,-0.167309
2.722000,-0.264421,-0.146158,-0.165751
2.742000,-0.259191,-0.144484,-0.163938
2.762000,-0.253187,-0.142929,-0.161982
2.782000,-0.247809,-0.140986,-0.159891
2.802000,-0.242537,-0.138902,-0.158135
2.822000,-0.237643,-0.136558,-0.156058
2.842000,-0.233933,-0.133718,-0.153557
2.862000,-0.231260,-0.130386,-0.150764
2.882000,-0.228529,-0.126844,-0.147917
2.902000,-0.225569,-0.123312,-0.145129
2.922000,-0.222944,-0.120122,-0.142497
2.942000,-0.220102,-0.117200,-0.139930
2.962000,-0.216807,-0.114345,-0.137429
2.982000,-0.213843,-0.111513,-0.135115
3.002000,-0.211987,-0.108728,-0.133155
3.022000,-0.211054,-0.105949,-0.131444
3.042000,-0.209604,-0.103450,-0.129773
3.062000,-0.206807,-0.101378,-0.128124
3.082000,-0.203296,-0.099643,-0.126588
3.102000,-0.199839,-0.098305,-0.125268
3.122000,-0.196190,-0.097399,-0.124051
3.142000,-0.192434,-0.096571,-0.122766
3.162000,-0.189117,-0.095473,-0.121420
3.182000,-0.186658,-0.093899,-0.120079
3.202000,-0.184827,-0.091964,-0.118717
3.222000,-0.183199,-0.089843,-0.117283
3.242000,-0.181489,-0.087703,-0.115867
3.262000,-0.179675,-0.085705,-0.114463
3.282000,-0.177762,-0.083934,-0.113061
3.302000,-0.175896,-0.082384,-0.111718
3.322000,-0.174001,-0.080988,-0.110412
3.342000,-0.172002,-0.079667,-0.109096
3.362000,-0.169855,-0.078413,-0.107758
3.382000,-0.167585,-0.077139,-0.106423
3.402000,-0.165570,-0.075785,-0.105205
3.422000,-0.163838,-0.074476,-0.104151
3.442000,-0.162138,-0.073316,-0.103129
3.462000,-0.160380,-0.072246,-0.102130
3.482000,-0.158703,-0.071116,-0.101135
3.502000,-0.157116,-0.069913,-0.100128
3.522000,-0.155700,-0.068656,-0.099149
3.542000,-0.154502,-0.067489,-0.098225
3.562000,-0.153320,-0.066393,-0.097373
3.582000,-0.152130,-0.065331,-0.096565
3.602000,-0.150836,-0.064301,-0.095676
3.622000,-0.149366,-0.063284,-0.094744
3.642000,-0.147893,-0.062295,-0.093825
3.662000,-0.146451,-0.061323,-0.092934
3.682000,-0.145150,-0.060357,-0.092087
3.702000,-0.144061,-0.059387,-0.091299
3.722000,-0.143040,-0.058404,-0.090521
3.742000,-0.142035,-0.057446,-0.089712
3.762000,-0.140881,-0.056522,-0.088904
3.782000,-0.139674,-0.055619,-0.088136
3.802000,-0.138632,-0.054762,-0.087441
3.822000,-0.137904,-0.053890,-0.086813
3.842000,-0.137219,-0.053031,-0.086199
3.862000,-0.136293,-0.052198,-0.085525
3.882000,-0.135244,-0.051427,-0.084853
3.902000,-0.134188,-0.050686,-0.084164
3.922000,-0.133190,-0.049954,-0.083482
3.942000,-0.132168,-0.049258,-0.082783
3.962000,-0.131070,-0.048585,-0.082078
3.982000,-0.130022,-0.047907,-0.081408
4.002000,-0.129096,-0.047225,-0.080791
4.022000,-0.128199,-0.046543,-0.080127
4.042000,-0.127232,-0.045864,-0.079419
4.062000,-0.126303,-0.045161,-0.078739
4.082000,-0.125431,-0.044471,-0.078070
4.102000,-0.124600,-0.043818,-0.077439
4.122000,-0.123799,-0.043123,-0.076824
4.142000,-0.123190,-0.042401,-0.076223
4.162000,-0.122539,-0.041710,-0.075595
4.182000,-0.121728,-0.041050,-0.074930
4.202000,-0.120912,-0.040420,-0.074290
4.222000,-0.120132,-0.039809,-0.073709
4.242000,-0.119454,-0.039188,-0.073149
4.262000,-0.118823,-0.038550,-0.072610
4.282000,-0.118207,-0.037917,-0.072089
4.302000,-0.117563,-0.037308,-0.071580
4.322000,-0.116807,-0.036742,-0.071068
4.354000,-0.116118,-0.036172,-0.070582
4.374000,-0.115490,-0.035595,-0.070063
4.394000,-0.114830,-0.035011,-0.069482
4.414000,-0.114204,-0.034401,-0.068906
4.434000,-0.113569,-0.033782,-0.068349
4.454000,-0.112804,-0.033215,-0.067772
4.474000,-0.112021,-0.032701,-0.067190
4.494000,-0.111266,-0.032197,-0.066641
4.514000,-0.110551,-0.031660,-0.066100
4.534000,-0.109851,-0.031140,-0.065573
4.554000,-0.109137,-0.030619,-0.065056
4.574000,-0.108458,-0.030114,-0.064563
4.594000,-0.107855,-0.029608,-0.064090
4.614000,-0.107227,-0.029079,-0.063604
4.634000,-0.106573,-0.028568,-0.063110
4.654000,-0.105963,-0.028083,-0.062641
4.674000,-0.105342,-0.027606,-0.062173
4.694000,-0.104741,-0.027098,-0.061682
4.714000,-0.104122,-0.026574,-0.061185
4.734000,-0.103536,-0.026072,-0.060703
4.754000,-0.103023,-0.025573,-0.060262
4.774000,-0.102535,-0.025027,-0.059836
4.794000,-0.102092,-0.024512,-0.059379
4.814000,-0.101583,-0.024025,-0.058885
4.834000,-0.100984,-0.023593,-0.058419
4.854000,-0.100426,-0.023181,-0.057971
4.874000,-0.099805,-0.022744,-0.057537
4.894000,-0.099260,-0.022291,-0.057126
4.914000,-0.098743,-0.021862,-0.056705
4.934000,-0.098173,-0.021419,-0.056287
4.954000,-0.097624,-0.020990,-0.055887
4.974000,-0.097015,-0.020586,-0.055484
4.994000,-0.096366,-0.020196,-0.055060
5.014000,-0.095725,-0.019783,-0.054644
5.034000,-0.095165,-0.019379,-0.054220
5.054000,-0.094561,-0.018963,-0.053755
5.074000,-0.093834,-0.018548,-0.053245
5.094000,-0.093078,-0.018152,-0.052697
5.114000,-0.092119,-0.017837,-0.052167
5.134000,-0.090969,-0.017627,-0.051642
5.154000,-0.089441,-0.017460,-0.051101
5.174000,-0.087527,-0.017352,-0.050564
5.194000,-0.085469,-0.017294,-0.049975
5.214000,-0.083285,-0.017364,-0.049290
5.234000,-0.080451,-0.017541,-0.048399
5.254000,-0.077225,-0.017844,-0.047451
5.274000,-0.074028,-0.018421,-0.046657
5.294000,-0.070959,-0.019238,-0.046103
5.314000,-0.068075,-0.020126,-0.045618
5.334000,-0.065575,-0.020915,-0.045152
5.354000,-0.063150,-0.021480,-0.044597
5.374000,-0.060209,-0.021847,-0.043928
5.394000,-0.057307,-0.022059,-0.043252
5.414000,-0.055088,-0.022170,-0.042643
5.434000,-0.053026,-0.022264,-0.042053
5.454000,-0.050866,-0.022347,-0.041502
5.474000,-0.048929,-0.022267,-0.040954
5.494000,-0.047202,-0.022070,-0.040210
5.514000,-0.045096,-0.021904,-0.039329
5.534000,-0.042823,-0.021670,-0.038374
5.554000,-0.040980,-0.021399,-0.037541
5.574000,-0.039742,-0.021227,-0.037127
5.594000,-0.039704,-0.021059,-0.037278
5.614000,-0.040882,-0.020685,-0.037521
5.634000,-0.042112,-0.020178,-0.037512
5.654000,-0.041728,-0.019878,-0.037310
5.674000,-0.040559,-0.019672,-0.036954
5.694000,-0.040108,-0.019521,-0.036667
5.714000,-0.040064,-0.019422,-0.036469
5.734000,-0.039677,-0.019398,-0.036180
5.754000,-0.038521,-0.019558,-0.035734
5.774000,-0.037452,-0.019794,-0.035427
5.794000,-0.036967,-0.019827,-0.035393
5.814000,-0.037052,-0.019550,-0.035432
5.834000,-0.037804,-0.019099,-0.035431
5.854000,-0.038707,-0.018712,-0.035557
5.874000,-0.039184,-0.018360,-0.035804
5.894000,-0.039269,-0.018012,-0.035851
5.914000,-0.039511,-0.017554,-0.035748
5.934000,-0.039972,-0.017044,-0.035579
5.954000,-0.040158,-0.016763,-0.035533
5.974000,-0.040001,-0.016835,-0.035828
5.994000,-0.039656,-0.016776,-0.035639
6.014000,-0.039248,-0.016724,-0.035633
6.034000,-0.039782,-0.016751,-0.035880
6.054000,-0.040836,-0.017077,-0.036758
6.074000,-0.041056,-0.017060,-0.036825
6.094000,-0.040452,-0.017086,-0.036792
6.114000,-0.040370,-0.017015,-0.036699
6.134000,-0.040997,-0.016950,-0.036790
6.154000,-0.040864,-0.016675,-0.036457
6.174000,-0.039881,-0.016503,-0.036163
6.194000,-0.039764,-0.016229,-0.036118
6.214000,-0.041032,-0.015597,-0.035978
6.234000,-0.041834,-0.015064,-0.035796
6.254000,-0.041871,-0.014758,-0.035560
6.274000,-0.041709,-0.014674,-0.035646
6.294000,-0.041755,-0.014449,-0.035589
6.314000,-0.041982,-0.014271,-0.035622
6.334000,-0.042329,-0.013968,-0.035568
