gyro_time_list,gyro_x_list,gyro_y_list,gyro_z_list
0.315000,-0.130567,-0.612198,0.498418
0.335000,-0.114912,-0.648836,0.540253
0.355000,-0.091515,-0.673164,0.578732
0.375000,-0.082607,-0.691347,0.615017
0.395000,-0.102321,-0.708386,0.641540
0.415000,-0.129334,-0.727073,0.664496
0.435000,-0.141657,-0.746303,0.688388
0.455000,-0.148209,-0.768180,0.707408
0.475000,-0.155228,-0.793080,0.722343
0.495000,-0.166992,-0.818893,0.733054
0.515000,-0.187741,-0.843864,0.738512
0.535000,-0.210650,-0.868486,0.740832
0.555000,-0.230321,-0.892388,0.741203
0.575000,-0.246356,-0.915415,0.739321
0.595000,-0.258938,-0.935260,0.733374
0.615000,-0.266206,-0.949118,0.723733
0.635000,-0.264814,-0.956197,0.712359
0.655000,-0.255210,-0.956854,0.700123
0.675000,-0.242397,-0.952733,0.686826
0.695000,-0.228999,-0.944883,0.672631
0.715000,-0.215242,-0.933787,0.657106
0.735000,-0.199402,-0.920385,0.641083
0.755000,-0.180962,-0.905253,0.624428
0.775000,-0.162798,-0.889722,0.606778
0.795000,-0.146892,-0.874084,0.588905
0.815000,-0.136756,-0.858273,0.569600
0.835000,-0.132646,-0.842720,0.549347
0.855000,-0.131575,-0.827494,0.528249
0.875000,-0.132962,-0.812874,0.506639
0.895000,-0.136341,-0.798790,0.484958
0.915000,-0.141088,-0.784817,0.463458
0.935000,-0.146025,-0.770808,0.442143
0.955000,-0.150154,-0.756585,0.420776
0.975000,-0.153659,-0.742237,0.399185
0.995000,-0.157802,-0.727204,0.377397
1.015000,-0.162669,-0.711380,0.355941
1.035000,-0.166788,-0.694665,0.335518
1.055000,-0.170046,-0.676999,0.316267
1.075000,-0.173466,-0.658570,0.298146
1.095000,-0.177468,-0.639483,0.281061
1.115000,-0.182090,-0.619513,0.265005
1.135000,-0.187187,-0.598803,0.249744
1.155000,-0.191640,-0.577690,0.235290
1.175000,-0.195238,-0.556427,0.221574
1.195000,-0.198391,-0.535746,0.208449
1.215000,-0.200741,-0.515395,0.196128
1.235000,-0.203312,-0.495408,0.184389
1.255000,-0.206872,-0.475814,0.173211
1.275000,-0.210417,-0.456632,0.162548
1.295000,-0.213093,-0.438037,0.152407
1.315000,-0.215495,-0.420481,0.142499
1.335000,-0.217525,-0.403784,0.133081
1.355000,-0.219039,-0.388112,0.124155
1.375000,-0.220343,-0.373647,0.115426
1.395000,-0.221925,-0.360368,0.106729
1.415000,-0.223764,-0.347855,0.098240
1.435000,-0.225022,-0.335987,0.090052
1.455000,-0.224536,-0.325048,0.082466
1.475000,-0.222560,-0.315034,0.075563
1.495000,-0.220344,-0.306009,0.069147
1.515000,-0.219187,-0.297730,0.062707
1.535000,-0.219022,-0.290334,0.056420
1.555000,-0.218791,-0.283597,0.050112
1.575000,-0.217588,-0.277068,0.044105
1.595000,-0.215481,-0.270792,0.038546
1.615000,-0.213036,-0.264418,0.033656
1.635000,-0.210592,-0.258002,0.029844
1.655000,-0.208386,-0.251329,0.027359
1.675000,-0.206786,-0.244521,0.025870
1.695000,-0.205535,-0.238006,0.025208
1.715000,-0.203916,-0.231493,0.025247
1.735000,-0.202053,-0.224614,0.025820
1.755000,-0.201172,-0.217222,0.026477
1.775000,-0.201233,-0.209071,0.026977
1.795000,-0.200668,-0.200608,0.027567
1.815000,-0.199012,-0.192294,0.028343
1.835000,-0.197545,-0.184195,0.029293
1.855000,-0.197512,-0.176302,0.030184
1.875000,-0.198999,-0.169359,0.030314
1.895000,-0.200412,-0.164290,0.029312
1.915000,-0.198936,-0.161125,0.027183
1.935000,-0.192495,-0.159432,0.024299
1.955000,-0.181460,-0.159572,0.021134
1.975000,-0.169569,-0.162073,0.018151
1.995000,-0.159236,-0.165727,0.015423
2.015000,-0.149614,-0.168442,0.012787
2.035000,-0.137183,-0.169253,0.011960
2.055000,-0.121560,-0.168060,0.014881
2.075000,-0.101162,-0.164823,0.022698
2.095000,-0.072172,-0.154805,0.038378
2.115000,-0.032170,-0.135248,0.065514
2.135000,0.011354,-0.106839,0.101636
2.155000,0.049570,-0.068383,0.146270
2.175000,0.083698,-0.025173,0.195529
2.195000,0.126005,0.022105,0.248276
2.215000,0.169645,0.074668,0.306253
2.235000,0.190424,0.142392,0.360087
2.255000,0.219480,0.170919,0.407390
2.275000,0.116001,0.064049,0.288579
2.295000,0.118272,0.065884,0.154815
2.332000,0.004645,0.183404,0.246353
2.352000,-0.121694,0.268515,0.280653
2.372000,-0.126340,0.289402,0.119317
2.392000,-0.238328,0.267229,0.123539
2.412000,-0.381529,0.267111,0.195850
2.432000,-0.403416,0.265285,0.163811
2.452000,-0.378939,0.258845,0.135693
2.472000,-0.410377,0.249814,0.119611
2.492000,-0.449893,0.247903,0.097316
2.512000,-0.499428,0.248993,0.089896
2.532000,-0.504931,0.249264,0.087189
2.552000,-0.479400,0.249970,0.089065
2.572000,-0.486803,0.247842,0.082880
2.592000,-0.499808,0.246837,0.079684
2.612000,-0.478506,0.247188,0.077074
2.632000,-0.478486,0.247670,0.071290
2.652000,-0.491191,0.248964,0.058444
2.672000,-0.505321,0.250447,0.045385
2.692000,-0.519728,0.248188,0.036009
2.712000,-0.524831,0.245482,0.028503
2.732000,-0.510578,0.251765,0.027525
2.752000,-0.474558,0.268742,0.028304
2.772000,-0.481174,0.295147,-0.009775
2.792000,-0.545372,0.306642,-0.033880
2.812000,-0.621697,0.304065,-0.055886
2.832000,-0.683550,0.292744,-0.076209
2.852000,-0.734884,0.277613,-0.092692
2.872000,-0.776166,0.262447,-0.102780
2.892000,-0.810809,0.249507,-0.107348
2.912000,-0.832307,0.238875,-0.110496
2.932000,-0.833030,0.229623,-0.111539
2.952000,-0.808706,0.223096,-0.109787
2.972000,-0.769593,0.218944,-0.106697
2.992000,-0.726372,0.215996,-0.103416
3.012000,-0.682755,0.212996,-0.100991
3.032000,-0.643852,0.208768,-0.100472
3.052000,-0.609090,0.203156,-0.101915
3.072000,-0.576018,0.197065,-0.103184
3.092000,-0.543673,0.191632,-0.102421
3.112000,-0.512691,0.187794,-0.099662
3.132000,-0.483648,0.185347,-0.095563
3.152000,-0.458018,0.183511,-0.090894
3.172000,-0.435065,0.181725,-0.086521
3.192000,-0.415163,0.179630,-0.082897
3.212000,-0.398513,0.177015,-0.080168
3.232000,-0.382639,0.174172,-0.077801
3.252000,-0.367079,0.171307,-0.075707
3.272000,-0.350679,0.168447,-0.074451
3.292000,-0.332953,0.165175,-0.074274
3.312000,-0.315619,0.160683,-0.074609
3.332000,-0.293594,0.155874,-0.075467
3.352000,-0.263263,0.150954,-0.077386
3.372000,-0.226877,0.145609,-0.078426
3.392000,-0.192143,0.139916,-0.078659
3.412000,-0.162481,0.134487,-0.075829
3.432000,-0.140305,0.132432,-0.060402
3.452000,-0.125740,0.129332,-0.059833
3.472000,-0.110593,0.126892,-0.055839
3.492000,-0.094178,0.123564,-0.053236
3.512000,-0.081351,0.119717,-0.052016
3.532000,-0.065383,0.116195,-0.050107
3.552000,-0.045852,0.113320,-0.047770
3.572000,-0.028966,0.110868,-0.045216
3.592000,-0.019784,0.107959,-0.043973
3.612000,-0.010460,0.105252,-0.041632
3.632000,-0.000527,0.102934,-0.039834
3.652000,0.003226,0.100304,-0.040001
3.672000,0.003661,0.096548,-0.041605
3.692000,0.005495,0.093542,-0.042551
3.712000,0.011911,0.091518,-0.042250
3.732000,0.019936,0.090039,-0.041493
3.752000,0.023273,0.089238,-0.040848
3.772000,0.025150,0.088483,-0.039994
3.792000,0.027840,0.087141,-0.040227
3.812000,0.028557,0.085739,-0.039954
3.832000,0.026848,0.084842,-0.039343
3.854000,0.027464,0.084543,-0.038865
3.874000,0.029007,0.083690,-0.039598
3.894000,0.027856,0.082279,-0.040773
3.914000,0.024996,0.081129,-0.040805
3.934000,0.023966,0.080030,-0.041272
3.954000,0.021848,0.078669,-0.042154
3.974000,0.015797,0.077813,-0.042267
3.994000,0.010803,0.077251,-0.042282
4.014000,0.007684,0.076152,-0.043467
4.034000,0.001843,0.074727,-0.044897
4.054000,-0.004728,0.073381,-0.045547
4.074000,-0.008432,0.072254,-0.046353
4.094000,-0.009698,0.071648,-0.046539
4.114000,-0.011273,0.071139,-0.046507
4.134000,-0.012697,0.070570,-0.046656
4.154000,-0.013559,0.070041,-0.046674
4.174000,-0.014600,0.069340,-0.046685
4.194000,-0.015114,0.068575,-0.047167
4.214000,-0.015606,0.068246,-0.046769
4.234000,-0.014718,0.068271,-0.046144
4.254000,-0.013900,0.068059,-0.045744
4.274000,-0.016339,0.067157,-0.045972
4.294000,-0.018133,0.066777,-0.045821
4.314000,-0.013764,0.067707,-0.044998
4.356000,-0.011239,0.067885,-0.044292
4.376000,-0.012608,0.067753,-0.044104
4.396000,-0.014496,0.067309,-0.044442
4.416000,-0.016563,0.066687,-0.044761
4.436000,-0.018226,0.065836,-0.045198
4.456000,-0.019056,0.065168,-0.045637
4.476000,-0.018804,0.064900,-0.045416
4.496000,-0.018706,0.064563,-0.045177
4.516000,-0.019717,0.064091,-0.045000
4.536000,-0.020615,0.063618,-0.045108
4.556000,-0.020696,0.063347,-0.044746
4.576000,-0.020559,0.062866,-0.044455
4.596000,-0.021877,0.062131,-0.044487
4.616000,-0.023232,0.061450,-0.044497
4.636000,-0.022887,0.061296,-0.043889
4.656000,-0.021443,0.061094,-0.043534
4.676000,-0.022090,0.060515,-0.043744
4.696000,-0.023726,0.060079,-0.043522
4.716000,-0.023770,0.059768,-0.043352
4.736000,-0.023598,0.059249,-0.043387
4.756000,-0.024873,0.058430,-0.043622
4.776000,-0.025884,0.057969,-0.043094
4.796000,-0.025936,0.057309,-0.042968
4.816000,-0.027646,0.056395,-0.043157
4.836000,-0.030314,0.055495,-0.043172
4.856000,-0.033044,0.054327,-0.043226
4.876000,-0.035992,0.052995,-0.043557
4.896000,-0.038961,0.051710,-0.044172
4.916000,-0.041177,0.050593,-0.044567
4.936000,-0.043170,0.049630,-0.044587
4.956000,-0.045464,0.048594,-0.045123
4.976000,-0.047537,0.047625,-0.045777
4.996000,-0.047972,0.047163,-0.045970
5.016000,-0.046966,0.047042,-0.045784
5.036000,-0.046164,0.046837,-0.045594
5.056000,-0.046438,0.046434,-0.045619
5.076000,-0.046716,0.046099,-0.045530
5.096000,-0.045933,0.045944,-0.045198
5.116000,-0.044879,0.045610,-0.045011
5.136000,-0.044615,0.045246,-0.044990
5.156000,-0.044902,0.044964,-0.044685
5.176000,-0.045262,0.044559,-0.044630
5.196000,-0.045647,0.044122,-0.044700
5.216000,-0.045672,0.043806,-0.044558
5.236000,-0.045108,0.043678,-0.044122
5.256000,-0.044835,0.043231,-0.043999
5.276000,-0.045438,0.042664,-0.044190
5.296000,-0.045930,0.042180,-0.044251
5.316000,-0.046122,0.041757,-0.044111
5.336000,-0.046201,0.041426,-0.043957
5.356000,-0.045911,0.041338,-0.043560
5.376000,-0.045250,0.041172,-0.043159
5.396000,-0.045295,0.040771,-0.043219
5.416000,-0.045995,0.040393,-0.043102
5.436000,-0.046368,0.040096,-0.042862
5.456000,-0.046342,0.039847,-0.042471
5.476000,-0.046252,0.039557,-0.042250
5.496000,-0.046285,0.039243,-0.042130
5.516000,-0.046333,0.038991,-0.041877
5.536000,-0.046257,0.038647,-0.041882
5.556000,-0.045929,0.038383,-0.041771
5.576000,-0.045146,0.038266,-0.041364
5.596000,-0.044299,0.038188,-0.040928
5.616000,-0.044030,0.037874,-0.040954
5.636000,-0.043874,0.037509,-0.041123
5.656000,-0.043071,0.037422,-0.040892
5.676000,-0.041893,0.037523,-0.040404
5.696000,-0.040713,0.037309,-0.040193
5.716000,-0.040025,0.036759,-0.040732
5.736000,-0.038181,0.036406,-0.041221
5.756000,-0.036124,0.036355,-0.041547
5.776000,-0.034335,0.036564,-0.041701
5.796000,-0.033051,0.036784,-0.041721
5.816000,-0.032398,0.036962,-0.041387
5.836000,-0.031779,0.037105,-0.040984
5.856000,-0.030859,0.037304,-0.040544
5.876000,-0.029837,0.037519,-0.040144
5.896000,-0.029388,0.037626,-0.039862
5.916000,-0.029311,0.037440,-0.039800
5.936000,-0.029074,0.037356,-0.039610
5.956000,-0.028563,0.037365,-0.039204
5.976000,-0.027981,0.037330,-0.038812
5.996000,-0.027422,0.037388,-0.038156
6.016000,-0.027101,0.037530,-0.037205
6.036000,-0.027487,0.037582,-0.036487
6.056000,-0.028437,0.037381,-0.036288
6.076000,-0.029152,0.036813,-0.036341
6.096000,-0.029927,0.036179,-0.036357
6.116000,-0.031168,0.035851,-0.036096
6.136000,-0.032775,0.035640,-0.035698
6.156000,-0.034306,0.035245,-0.035315
6.176000,-0.035386,0.034716,-0.034980
6.196000,-0.036374,0.034290,-0.034618
6.216000,-0.037587,0.033934,-0.034359
6.236000,-0.038883,0.033614,-0.034191
6.256000,-0.040008,0.033145,-0.034105
6.276000,-0.040959,0.032735,-0.034033
6.296000,-0.041645,0.032420,-0.033863
6.316000,-0.042135,0.032281,-0.033511
6.336000,-0.042692,0.032283,-0.033112
