gyro_time_list,gyro_x_list,gyro_y_list,gyro_z_list
95.473,-0.042089,0.02195,-0.014686
95.493,-0.042218,0.021949,-0.014677
95.513,-0.04228,0.021946,-0.01467
95.533,-0.042215,0.021942,-0.014666
95.553,-0.042139,0.021936,-0.014663
95.573,-0.042166,0.021943,-0.014663
95.593,-0.042286,0.021954,-0.014657
95.613,-0.042388,0.021957,-0.01466
95.633,-0.04242,0.021953,-0.014657
95.653,-0.042422,0.021946,-0.014653
95.673,-0.042462,0.021949,-0.014652
95.693,-0.042521,0.021946,-0.014641
95.713,-0.042539,0.021948,-0.014643
95.733,-0.042576,0.021944,-0.014639
95.753,-0.042655,0.021943,-0.01463
95.773,-0.042695,0.021953,-0.014637
95.793,-0.042676,0.021952,-0.014648
95.813,-0.042687,0.021955,-0.014642
95.833,-0.042787,0.021954,-0.014644
95.853,-0.042932,0.021958,-0.014657
95.873,-0.043037,0.02196,-0.014663
95.893,-0.043074,0.021952,-0.014664
95.913,-0.043074,0.021952,-0.014666
95.933,-0.043077,0.021953,-0.01467
95.953,-0.043086,0.021953,-0.014677
95.973,-0.043086,0.021947,-0.014677
95.993,-0.043076,0.021956,-0.014667
96.013,-0.043041,0.021962,-0.014668
96.033,-0.042977,0.021966,-0.014663
96.053,-0.042928,0.021962,-0.014644
96.073,-0.042909,0.021987,-0.014611
96.093,-0.042912,0.021993,-0.014557
96.113,-0.042927,0.022026,-0.014514
96.133,-0.042987,0.022027,-0.014486
96.153,-0.043025,0.022048,-0.014466
96.173,-0.04299,0.022054,-0.014439
96.193,-0.042929,0.022063,-0.014401
96.213,-0.042954,0.022062,-0.014374
96.233,-0.043086,0.022088,-0.01435
96.253,-0.04322,0.022092,-0.014329
96.273,-0.043262,0.022104,-0.014319
96.293,-0.043229,0.022109,-0.01432
96.313,-0.043187,0.022117,-0.014321
96.333,-0.043154,0.02211,-0.014336
96.353,-0.043146,0.022106,-0.01435
96.373,-0.043165,0.022109,-0.014358
96.393,-0.043155,0.022112,-0.014375
96.413,-0.043131,0.022104,-0.014369
96.433,-0.04312,0.022104,-0.01436
96.453,-0.043094,0.02211,-0.014346
96.473,-0.043085,0.022117,-0.01432
96.493,-0.043175,0.022111,-0.014268
96.513,-0.043332,0.022124,-0.014214
96.533,-0.043429,0.022115,-0.014182
96.553,-0.043424,0.022109,-0.014171
96.573,-0.043397,0.022096,-0.014164
96.593,-0.043411,0.022081,-0.014174
96.613,-0.043395,0.022079,-0.0142
96.633,-0.04329,0.022076,-0.014234
96.653,-0.043173,0.022075,-0.014262
96.673,-0.043144,0.02207,-0.014274
96.693,-0.043189,0.02206,-0.014275
96.713,-0.043187,0.022064,-0.014267
96.733,-0.04311,0.022102,-0.01426
96.753,-0.043007,0.022078,-0.01423
96.773,-0.04295,0.022097,-0.014225
96.793,-0.04291,0.022095,-0.014228
96.813,-0.042863,0.022103,-0.014226
96.833,-0.042849,0.022099,-0.014216
96.853,-0.042889,0.022094,-0.014211
96.873,-0.042921,0.022089,-0.014205
96.893,-0.042912,0.022094,-0.014207
96.913,-0.042856,0.022085,-0.014206
96.933,-0.042805,0.022071,-0.014201
96.953,-0.042813,0.02207,-0.014203
96.973,-0.042838,0.022072,-0.014184
96.993,-0.042862,0.022075,-0.01417
97.013,-0.042876,0.022071,-0.014153
97.033,-0.04289,0.022085,-0.014142
97.053,-0.042912,0.022087,-0.014139
97.073,-0.042903,0.022084,-0.014147
97.093,-0.04286,0.022077,-0.014156
97.113,-0.04281,0.022077,-0.014188
97.133,-0.042832,0.022074,-0.014217
97.153,-0.0429,0.022075,-0.014234
97.173,-0.042898,0.022069,-0.014254
97.193,-0.042818,0.022063,-0.014285
97.213,-0.042809,0.022061,-0.014303
97.233,-0.042907,0.022059,-0.01431
97.253,-0.042985,0.022054,-0.014326
97.273,-0.042956,0.022038,-0.014356
97.293,-0.042925,0.022035,-0.014385
97.313,-0.042964,0.022039,-0.014422
97.333,-0.042988,0.022033,-0.014454
97.353,-0.042885,0.022026,-0.014484
97.373,-0.042756,0.022011,-0.014507
97.393,-0.042735,0.022013,-0.014508
97.413,-0.042791,0.021997,-0.014495
97.433,-0.042821,0.02199,-0.014479
97.453,-0.042791,0.021977,-0.014477
97.529,-0.042766,0.021963,-0.014488
97.549,-0.04275,0.021951,-0.014492
97.569,-0.042778,0.021946,-0.014494
97.589,-0.042819,0.021947,-0.014506
97.609,-0.042821,0.021938,-0.014515
97.629,-0.042766,0.021941,-0.014536
97.649,-0.04269,0.021928,-0.014557
97.669,-0.042678,0.021929,-0.014577
97.689,-0.042731,0.021924,-0.014583
97.709,-0.042762,0.021927,-0.014596
97.729,-0.042712,0.021918,-0.014617
97.749,-0.042656,0.02191,-0.014641
97.769,-0.04265,0.021909,-0.014663
97.789,-0.042673,0.021907,-0.014683
97.809,-0.042652,0.021912,-0.014688
97.829,-0.042565,0.021899,-0.014705
97.849,-0.042485,0.021891,-0.014737
97.869,-0.042464,0.021882,-0.014748
97.889,-0.042479,0.021878,-0.014758
97.909,-0.042456,0.021867,-0.014775
97.929,-0.042405,0.021863,-0.014803
97.949,-0.042431,0.021866,-0.014817
97.969,-0.042564,0.021885,-0.014814
97.989,-0.04266,0.021888,-0.014828
98.009,-0.042663,0.021877,-0.014826
98.029,-0.042648,0.021882,-0.014827
98.049,-0.042642,0.021888,-0.014852
98.069,-0.042638,0.021893,-0.014864
98.089,-0.042626,0.021906,-0.014876
98.109,-0.042644,0.021907,-0.01487
98.129,-0.042701,0.021919,-0.014854
98.149,-0.042747,0.021923,-0.014851
98.169,-0.042734,0.021931,-0.014847
98.189,-0.042701,0.021934,-0.014851
98.209,-0.042681,0.02193,-0.014857
98.229,-0.042717,0.021931,-0.014866
98.249,-0.042768,0.021937,-0.014864
98.269,-0.042817,0.021934,-0.014868
98.289,-0.042857,0.02194,-0.014874
98.309,-0.0429,0.021939,-0.014876
98.329,-0.042946,0.021938,-0.014887
98.349,-0.042998,0.021944,-0.014896
98.369,-0.043029,0.021943,-0.014886
98.389,-0.043054,0.021947,-0.014872
98.409,-0.043101,0.021953,-0.014858
98.429,-0.04314,0.021952,-0.014852
98.449,-0.043164,0.021949,-0.014843
98.469,-0.043178,0.021955,-0.014835
98.489,-0.043199,0.021958,-0.014824
98.509,-0.043253,0.021969,-0.014807
98.529,-0.043318,0.021974,-0.014795
98.549,-0.043368,0.02197,-0.014791
98.569,-0.043365,0.021981,-0.01479
98.589,-0.043341,0.021991,-0.014783
98.609,-0.04334,0.021989,-0.01479
98.629,-0.043334,0.02197,-0.014819
98.649,-0.043347,0.021979,-0.014827
98.669,-0.043414,0.021991,-0.014821
98.689,-0.0435,0.021999,-0.014809
98.709,-0.0435,0.021985,-0.014803
98.729,-0.043485,0.02197,-0.014796
98.749,-0.043546,0.021961,-0.014796
98.769,-0.043677,0.021956,-0.01479
98.789,-0.043732,0.021947,-0.014792
98.809,-0.043689,0.021949,-0.01479
98.829,-0.043634,0.021946,-0.014772
98.849,-0.043619,0.021937,-0.014751
98.869,-0.043613,0.021927,-0.014737
98.889,-0.043632,0.021926,-0.014728
98.909,-0.043668,0.021926,-0.014702
98.929,-0.043691,0.021916,-0.014695
98.949,-0.043657,0.021923,-0.014692
98.969,-0.043605,0.02192,-0.01469
98.989,-0.04361,0.021924,-0.014687
99.009,-0.043668,0.021926,-0.014681
99.029,-0.043695,0.021921,-0.014683
99.049,-0.043647,0.021925,-0.014692
99.069,-0.043622,0.021931,-0.014707
99.089,-0.043656,0.021935,-0.014712
99.109,-0.043685,0.021945,-0.014715
99.129,-0.043666,0.021953,-0.014717
99.149,-0.04366,0.021954,-0.01472
99.169,-0.043716,0.021958,-0.014723
99.189,-0.043771,0.021966,-0.014726
99.209,-0.043754,0.021969,-0.014727
99.229,-0.043696,0.021969,-0.014721
99.249,-0.043692,0.021975,-0.014713
99.269,-0.043753,0.021985,-0.014714
99.289,-0.043798,0.021987,-0.014707
99.309,-0.043768,0.021981,-0.01471
99.329,-0.043746,0.021971,-0.014709
99.349,-0.043816,0.021976,-0.014703
99.369,-0.043884,0.021981,-0.014709
99.389,-0.043852,0.021984,-0.014716
99.409,-0.043814,0.021992,-0.014712
99.429,-0.043894,0.022001,-0.014705
99.449,-0.04403,0.022012,-0.014696
99.469,-0.044134,0.02202,-0.014698
99.489,-0.044175,0.02201,-0.014701
99.509,-0.044177,0.022022,-0.014707
99.734,-0.044204,0.022025,-0.014697
99.754,-0.044251,0.022023,-0.014675
99.774,-0.044284,0.022024,-0.014655
99.794,-0.044281,0.022023,-0.014652
99.814,-0.044271,0.022009,-0.01466
99.834,-0.044272,0.022002,-0.014668
99.854,-0.044272,0.022018,-0.014663
99.874,-0.044258,0.022012,-0.014657
99.894,-0.04431,0.022005,-0.014653
99.914,-0.04443,0.02202,-0.014652
99.934,-0.044511,0.022019,-0.014657
99.954,-0.044492,0.022032,-0.014683
99.974,-0.044396,0.022029,-0.014702
99.994,-0.044309,0.022027,-0.014723
100.014,-0.044323,0.022037,-0.014719
100.034,-0.044413,0.022045,-0.014705
100.054,-0.044492,0.022056,-0.014686
100.074,-0.044563,0.022062,-0.014657
100.094,-0.044669,0.022081,-0.014629
100.114,-0.044815,0.022104,-0.01461
100.134,-0.044985,0.022123,-0.014611
100.154,-0.045183,0.022146,-0.01463
100.174,-0.045345,0.022175,-0.01464
100.194,-0.045357,0.022194,-0.014672
100.214,-0.045235,0.022192,-0.014737
100.234,-0.045141,0.022217,-0.014786
100.254,-0.045084,0.022234,-0.014835
100.274,-0.045024,0.022268,-0.014911
100.294,-0.045165,0.022297,-0.014955
100.314,-0.04553,0.022319,-0.014934
100.334,-0.045799,0.022325,-0.01494
100.354,-0.04572,0.02234,-0.014981
100.374,-0.04556,0.022357,-0.015027
100.394,-0.045769,0.022381,-0.015019
100.414,-0.046275,0.022406,-0.014991
100.434,-0.046755,0.02245,-0.014967
100.454,-0.047131,0.022489,-0.014926
100.474,-0.047507,0.02254,-0.014849
100.494,-0.048022,0.022593,-0.014732
100.514,-0.048682,0.022662,-0.014601
100.534,-0.049342,0.022735,-0.014468
100.554,-0.049801,0.022778,-0.01437
100.574,-0.050038,0.022826,-0.014295
100.594,-0.050255,0.022864,-0.014202
100.614,-0.050501,0.022902,-0.01412
100.634,-0.050619,0.02291,-0.014143
100.654,-0.050438,0.022902,-0.014243
100.674,-0.04999,0.022869,-0.014396
100.694,-0.049403,0.022811,-0.014637
100.714,-0.04875,0.022756,-0.014961
100.734,-0.048127,0.022692,-0.015283
100.754,-0.047595,0.022612,-0.015561
100.774,-0.04712,0.022532,-0.015802
100.794,-0.046656,0.022459,-0.01601
100.814,-0.046256,0.022405,-0.016133
100.834,-0.046066,0.022362,-0.016168
100.854,-0.046095,0.022341,-0.016152
100.874,-0.046172,0.022319,-0.016121
100.894,-0.04611,0.02231,-0.016077
100.914,-0.045942,0.022304,-0.016028
100.934,-0.045886,0.022313,-0.015928
100.954,-0.046063,0.022303,-0.015798
100.974,-0.046308,0.022294,-0.015692
100.994,-0.046318,0.022291,-0.015642
101.014,-0.046055,0.022283,-0.015622
101.034,-0.04583,0.022272,-0.015593
101.054,-0.045795,0.022269,-0.015554
101.074,-0.045826,0.022277,-0.015544
101.094,-0.045815,0.022287,-0.015534
101.114,-0.045773,0.022297,-0.015493
101.134,-0.045734,0.022301,-0.01541
101.154,-0.045719,0.022303,-0.015294
101.174,-0.045771,0.022297,-0.015188
101.194,-0.045842,0.022295,-0.015091
101.214,-0.045829,0.022286,-0.015025
101.234,-0.045697,0.022275,-0.014989
101.254,-0.045541,0.022264,-0.01497
101.274,-0.045514,0.022254,-0.014956
101.294,-0.04554,0.022246,-0.014947
101.314,-0.045503,0.022233,-0.014926
101.334,-0.045403,0.02221,-0.014888
101.354,-0.045378,0.022192,-0.014823
101.374,-0.045506,0.022189,-0.014748
101.394,-0.045613,0.022184,-0.014698
101.414,-0.045593,0.022182,-0.014664
101.434,-0.045479,0.02216,-0.01462
101.454,-0.045421,0.022164,-0.014558
101.474,-0.045503,0.022148,-0.014512
101.494,-0.045605,0.022149,-0.014487
101.514,-0.045576,0.022154,-0.014491
101.534,-0.045423,0.022153,-0.014503
101.554,-0.045296,0.022146,-0.014521
101.574,-0.045296,0.022147,-0.014533
101.594,-0.045374,0.022154,-0.014549
101.614,-0.045397,0.022159,-0.014559
101.634,-0.045316,0.022158,-0.014581
101.654,-0.045184,0.022164,-0.014597
101.674,-0.045099,0.022158,-0.014611
101.694,-0.045121,0.022154,-0.01463
101.714,-0.045169,0.022157,-0.014643
101.848,-0.045046,0.022154,-0.014656
101.868,-0.044961,0.022151,-0.014666
101.888,-0.044966,0.022132,-0.014666
101.908,-0.044989,0.022123,-0.014655
101.928,-0.044884,0.022111,-0.014661
101.948,-0.044723,0.022107,-0.014674
101.968,-0.044721,0.022095,-0.01467
101.988,-0.044978,0.022116,-0.014636
102.008,-0.045287,0.02212,-0.014578
102.028,-0.045416,0.022119,-0.014493
102.048,-0.045267,0.022135,-0.014364
102.068,-0.044563,0.022091,-0.014159
102.088,-0.042914,0.021954,-0.014054
102.108,-0.040312,0.021757,-0.014182
102.128,-0.037385,0.021399,-0.014467
102.148,-0.034511,0.020903,-0.014771
102.168,-0.031448,0.020162,-0.014905
102.188,-0.027584,0.019288,-0.015103
102.208,-0.022798,0.018274,-0.015367
102.228,-0.01704,0.016858,-0.015493
102.248,-0.010177,0.01498,-0.015455
102.268,-0.003761,0.012649,-0.016225
102.288,0.002273,0.009718,-0.01628
102.308,0.00719,0.007108,-0.017009
102.328,0.011131,0.004305,-0.017074
102.348,0.014996,0.001718,-0.017075
102.368,0.01815,-0.000937,-0.016806
102.388,0.019002,-0.004112,-0.017473
102.408,0.01829,-0.007155,-0.017656
102.428,0.018732,-0.009747,-0.017768
102.448,0.019694,-0.012235,-0.017801
102.468,0.020386,-0.014461,-0.01797
102.488,0.020362,-0.016225,-0.018186
102.508,0.019767,-0.017504,-0.018651
102.528,0.018778,-0.018321,-0.0194
102.548,0.018084,-0.01869,-0.02024
102.568,0.017897,-0.018545,-0.021061
102.588,0.0178,-0.017964,-0.021807
102.608,0.017249,-0.017304,-0.022568
102.628,0.016549,-0.016748,-0.023197
102.648,0.015742,-0.01629,-0.023705
102.668,0.014877,-0.015936,-0.024138
102.688,0.014446,-0.015696,-0.024455
102.708,0.014232,-0.015488,-0.024633
102.728,0.013705,-0.01522,-0.024766
102.748,0.012987,-0.014749,-0.024754
102.768,0.01177,-0.01421,-0.024672
102.788,0.010944,-0.013724,-0.02465
102.808,0.010485,-0.013302,-0.024622
102.828,0.009364,-0.012814,-0.024691
102.848,0.007631,-0.012255,-0.024834
102.868,0.006653,-0.011715,-0.024931
102.888,0.006336,-0.011216,-0.024916
102.908,0.005733,-0.010644,-0.024933
102.928,0.004681,-0.009963,-0.025101
102.948,0.003913,-0.009287,-0.025322
102.968,0.003489,-0.008651,-0.025551
102.988,0.002828,-0.008032,-0.025755
103.008,0.001869,-0.007483,-0.026011
103.028,0.001211,-0.007084,-0.026231
103.048,0.000838,-0.00684,-0.026426
103.068,0.000681,-0.0067,-0.026693
103.088,0.000888,-0.006698,-0.027044
103.108,0.00136,-0.006864,-0.027369
103.128,0.001411,-0.00705,-0.027701
103.148,0.000684,-0.007059,-0.028399
103.168,0.000986,-0.006948,-0.028593
103.188,0.001145,-0.006752,-0.028676
103.208,0.000518,-0.006471,-0.028627
103.228,-0.000169,-0.006106,-0.028418
103.248,-0.000835,-0.005707,-0.028071
103.268,-0.002287,-0.005194,-0.027934
103.288,-0.004072,-0.004565,-0.027986
103.308,-0.00525,-0.003909,-0.028044
103.328,-0.006223,-0.003182,-0.028078
103.348,-0.007364,-0.002434,-0.028099
103.368,-0.008867,-0.001727,-0.028117
103.388,-0.010473,-0.001003,-0.028166
103.408,-0.011668,-0.00024,-0.028076
103.428,-0.012921,0.000559,-0.027838
103.448,-0.013464,0.001267,-0.027616
103.468,-0.01419,0.001918,-0.027206
103.488,-0.015469,0.002588,-0.026858
103.508,-0.016772,0.003216,-0.026591
103.528,-0.017852,0.003668,-0.026337
103.548,-0.019068,0.004057,-0.026131
103.568,-0.020227,0.004623,-0.025907
103.588,-0.021092,0.005509,-0.025661
103.608,-0.021804,0.006361,-0.025503
103.628,-0.022643,0.006952,-0.025409
103.648,-0.023395,0.007423,-0.025195
103.668,-0.024074,0.007786,-0.02495
103.688,-0.024775,0.008037,-0.024706
103.708,-0.025384,0.008279,-0.024455
103.728,-0.025889,0.008578,-0.024213
103.748,-0.026286,0.008826,-0.024011
103.768,-0.026739,0.009054,-0.023844
103.788,-0.027374,0.009352,-0.023665
103.808,-0.028172,0.009686,-0.023459
103.828,-0.028894,0.009993,-0.023254
103.952,-0.029446,0.010396,-0.023327
103.972,-0.03004,0.010866,-0.023253
103.992,-0.030542,0.011503,-0.023135
104.012,-0.030705,0.0123,-0.022943
104.032,-0.030992,0.012904,-0.022832
104.052,-0.031748,0.013323,-0.022821
104.072,-0.032517,0.013757,-0.022682
104.092,-0.033013,0.01432,-0.022415
104.112,-0.033174,0.014844,-0.022121
104.132,-0.033448,0.015265,-0.021932
104.152,-0.033953,0.015654,-0.02179
104.172,-0.034387,0.01601,-0.021639
104.192,-0.034836,0.016304,-0.021536
104.212,-0.035606,0.016702,-0.02157
104.232,-0.036266,0.017173,-0.021672
104.252,-0.036563,0.017578,-0.021799
104.272,-0.037033,0.01788,-0.021946
104.292,-0.037743,0.018127,-0.022087
104.312,-0.038543,0.018398,-0.022149
104.332,-0.039373,0.018735,-0.022184
104.352,-0.04016,0.019061,-0.022246
104.372,-0.040745,0.019099,-0.021971
104.392,-0.041517,0.019063,-0.021396
104.412,-0.04249,0.019043,-0.020971
104.432,-0.042754,0.019087,-0.020525
104.452,-0.042485,0.019288,-0.020306
104.472,-0.042037,0.019595,-0.020419
104.492,-0.041376,0.019922,-0.020585
104.512,-0.041221,0.020257,-0.020676
104.532,-0.041706,0.020424,-0.020892
104.552,-0.042169,0.02057,-0.021033
104.572,-0.042688,0.02054,-0.020907
104.592,-0.043357,0.020337,-0.020626
104.612,-0.043831,0.020166,-0.020318
104.632,-0.044396,0.020109,-0.020058
104.652,-0.04461,0.020086,-0.019972
104.672,-0.044445,0.020186,-0.020009
104.692,-0.044532,0.02037,-0.020257
104.712,-0.044617,0.020653,-0.02047
104.732,-0.044303,0.020853,-0.02053
104.752,-0.044363,0.021013,-0.020581
104.772,-0.044606,0.021126,-0.020578
104.792,-0.044597,0.021205,-0.020489
104.812,-0.04454,0.021243,-0.020395
104.832,-0.044357,0.021267,-0.020243
104.852,-0.044119,0.021306,-0.020051
104.872,-0.043948,0.021267,-0.019922
104.892,-0.043783,0.02118,-0.019862
104.912,-0.043412,0.021172,-0.019851
104.932,-0.043076,0.021248,-0.019802
104.952,-0.04314,0.021238,-0.019802
104.972,-0.043586,0.021237,-0.019871
104.992,-0.044071,0.021233,-0.020242
105.012,-0.044379,0.021067,-0.020471
105.032,-0.044697,0.020908,-0.020437
105.052,-0.044397,0.020679,-0.020157
105.072,-0.043904,0.020475,-0.019938
105.092,-0.043493,0.020356,-0.019937
105.112,-0.042258,0.020195,-0.02012
105.132,-0.040048,0.019877,-0.020385
105.152,-0.037859,0.019553,-0.020582
105.172,-0.035386,0.019408,-0.020622
105.192,-0.032369,0.019414,-0.02034
105.212,-0.029639,0.01921,-0.020213
105.232,-0.027979,0.018708,-0.019935
105.252,-0.026633,0.018241,-0.019478
105.272,-0.024925,0.017744,-0.01881
105.292,-0.023364,0.017326,-0.018006
105.312,-0.022505,0.016825,-0.017021
105.332,-0.021037,0.016346,-0.015235
105.352,-0.018921,0.01609,-0.012986
105.372,-0.018696,0.015824,-0.010408
105.392,-0.019451,0.015739,-0.007426
105.412,-0.020361,0.015894,-0.004316
105.432,-0.021811,0.016385,-0.001274
105.452,-0.024455,0.017315,0.001489
105.472,-0.027949,0.018638,0.004009
105.492,-0.032539,0.020719,0.006192
105.512,-0.039641,0.023809,0.007812
105.532,-0.047462,0.027666,0.008727
105.552,-0.056523,0.032092,0.008905
105.572,-0.063056,0.036457,0.008396
105.592,-0.068087,0.038646,0.008686
105.612,-0.071415,0.038554,0.008874
105.632,-0.07287,0.038662,0.008856
105.652,-0.072298,0.038909,0.008681
105.672,-0.07028,0.038956,0.008438
105.692,-0.068308,0.038942,0.00819
105.712,-0.067694,0.038863,0.007823
105.732,-0.06766,0.038719,0.007418
105.752,-0.067306,0.038687,0.006992
105.772,-0.066467,0.03864,0.006396
105.792,-0.065294,0.038397,0.005936
105.812,-0.064392,0.038066,0.005569
105.832,-0.063878,0.037803,0.005107
105.852,-0.063387,0.03759,0.00461
105.872,-0.062874,0.037407,0.004091
105.892,-0.062425,0.037191,0.003556
105.912,-0.062518,0.036996,0.003203
105.932,-0.062505,0.03676,0.002654
106.008,-0.062532,0.036537,0.002192
106.028,-0.06253,0.036327,0.001774
106.048,-0.062388,0.036145,0.00143
106.068,-0.062355,0.035922,0.001107
106.088,-0.062299,0.035716,0.0008
106.108,-0.06199,0.035584,0.000595
106.128,-0.061678,0.03544,0.00045
106.148,-0.061518,0.035286,0.000274
106.168,-0.061343,0.035149,0.000082
106.188,-0.061158,0.035,-0.000138
106.208,-0.060946,0.03485,-0.000399
106.228,-0.060649,0.03468,-0.000577
106.248,-0.06033,0.034545,-0.000731
106.268,-0.060057,0.034394,-0.000895
106.288,-0.059863,0.034239,-0.001081
106.308,-0.059745,0.034107,-0.001261
106.328,-0.059761,0.03398,-0.001412
106.348,-0.059717,0.033847,-0.001551
106.368,-0.059509,0.033687,-0.001677
106.388,-0.059161,0.033572,-0.001808
106.408,-0.05873,0.033452,-0.001926
106.428,-0.058393,0.033312,-0.002039
106.448,-0.058197,0.033165,-0.00222
106.468,-0.058221,0.032997,-0.00249
106.488,-0.058609,0.032809,-0.002583
106.508,-0.058818,0.032622,-0.002801
106.528,-0.058756,0.03239,-0.003027
106.548,-0.058691,0.032159,-0.003286
106.568,-0.058834,0.031944,-0.003516
106.588,-0.059249,0.031685,-0.003695
106.608,-0.05984,0.031349,-0.003787
106.628,-0.060747,0.03096,-0.004008
106.648,-0.062286,0.030034,-0.004281
106.668,-0.063332,0.028611,-0.004497
106.688,-0.063388,0.027,-0.004761
106.708,-0.062621,0.024816,-0.005163
106.728,-0.061893,0.021541,-0.00544
106.748,-0.062457,0.016812,-0.005978
106.768,-0.065788,0.01104,-0.006967
106.788,-0.067963,0.005199,-0.007875
106.808,-0.068075,-0.000748,-0.008638
106.828,-0.066354,-0.006589,-0.009295
106.848,-0.064295,-0.012518,-0.010012
106.868,-0.062854,-0.018837,-0.011047
106.888,-0.062274,-0.025578,-0.012433
106.908,-0.062373,-0.032127,-0.013812
106.928,-0.062943,-0.038368,-0.014794
106.948,-0.063365,-0.044085,-0.015378
106.968,-0.064289,-0.048651,-0.015446
106.988,-0.064354,-0.052673,-0.015646
107.008,-0.064061,-0.056328,-0.015563
107.028,-0.0641,-0.059581,-0.01547
107.048,-0.064445,-0.062076,-0.015045
107.068,-0.065045,-0.063597,-0.014703
107.088,-0.065844,-0.06438,-0.014921
107.108,-0.067692,-0.064833,-0.015901
107.128,-0.070086,-0.064647,-0.017256
107.148,-0.0712,-0.063465,-0.018734
107.168,-0.070681,-0.061046,-0.019644
107.188,-0.069336,-0.057072,-0.020199
107.208,-0.067387,-0.051645,-0.02035
107.228,-0.064254,-0.044759,-0.020111
107.248,-0.060207,-0.03691,-0.019742
107.268,-0.056001,-0.02844,-0.019157
107.288,-0.051964,-0.019993,-0.018232
107.308,-0.048793,-0.012587,-0.017161
107.328,-0.047602,-0.006633,-0.016541
107.348,-0.048906,-0.002422,-0.016141
107.368,-0.051802,0.000168,-0.015704
107.388,-0.054781,0.001739,-0.014998
107.408,-0.056018,0.00302,-0.014236
107.428,-0.055548,0.004278,-0.013485
107.448,-0.055147,0.005688,-0.012937
107.468,-0.055633,0.007316,-0.012627
107.488,-0.056604,0.009132,-0.012492
107.508,-0.058142,0.010921,-0.012394
107.528,-0.059838,0.01255,-0.012142
107.548,-0.061101,0.013895,-0.011712
107.568,-0.06197,0.015088,-0.011399
107.588,-0.061929,0.015842,-0.011415
107.608,-0.061162,0.015844,-0.011822
107.628,-0.060615,0.015312,-0.012264
107.648,-0.060933,0.014424,-0.012931
107.668,-0.061919,0.013614,-0.013777
107.688,-0.063521,0.013358,-0.014681
107.708,-0.065071,0.013851,-0.015471
107.728,-0.066449,0.015158,-0.016187
107.748,-0.068032,0.016982,-0.016918
107.768,-0.069355,0.018846,-0.017632
107.788,-0.070358,0.020482,-0.018053
107.808,-0.071527,0.02154,-0.018359
107.828,-0.073306,0.021992,-0.018589
107.848,-0.075618,0.021983,-0.018719
107.868,-0.077881,0.021704,-0.018796
107.888,-0.079568,0.021201,-0.019013
107.908,-0.080719,0.020634,-0.019466
107.928,-0.081624,0.02005,-0.020258
107.948,-0.082658,0.019372,-0.021379
107.968,-0.083757,0.018723,-0.022642
107.988,-0.08459,0.018227,-0.024169
108.067,-0.086426,0.01881,-0.0257
108.087,-0.087707,0.020385,-0.026906
108.107,-0.088353,0.021729,-0.027907
108.127,-0.088723,0.021941,-0.028739
108.147,-0.089176,0.021976,-0.02906
108.167,-0.089692,0.023166,-0.028964
108.187,-0.089322,0.024757,-0.028708
108.207,-0.088738,0.025214,-0.029042
108.227,-0.088771,0.025055,-0.029527
108.247,-0.088347,0.025515,-0.029471
108.267,-0.086388,0.025864,-0.02905
108.287,-0.084901,0.024439,-0.029653
108.307,-0.084409,0.022843,-0.031393
108.327,-0.082298,0.022635,-0.033125
108.347,-0.079773,0.021602,-0.034599
108.367,-0.078451,0.019507,-0.036357
108.387,-0.077191,0.019096,-0.037544
108.407,-0.075573,0.020545,-0.037431
108.427,-0.075014,0.020329,-0.036291
108.447,-0.075201,0.021267,-0.034045
108.467,-0.075045,0.025991,-0.030615
108.487,-0.073528,0.032496,-0.027469
108.507,-0.07162,0.036413,-0.024313
108.527,-0.070653,0.040215,-0.021226
108.547,-0.070907,0.046115,-0.018615
108.567,-0.070188,0.052943,-0.016409
108.587,-0.068309,0.059025,-0.013701
108.607,-0.069005,0.064678,-0.011083
108.627,-0.071663,0.071073,-0.008562
108.647,-0.071735,0.079366,-0.005637
108.667,-0.070733,0.088532,-0.001874
108.687,-0.07156,0.097645,0.00313
108.707,-0.072629,0.108752,0.007747
108.727,-0.069592,0.121416,0.012651
108.747,-0.061137,0.134555,0.019002
108.767,-0.053653,0.14756,0.025418
108.787,-0.052894,0.159986,0.030184
108.807,-0.058437,0.1706,0.03379
108.827,-0.064747,0.180109,0.037718
108.847,-0.068311,0.189877,0.042185
108.867,-0.067965,0.199939,0.047138
108.887,-0.064587,0.208896,0.052558
108.907,-0.059562,0.215644,0.05793
108.927,-0.054562,0.219939,0.06276
108.947,-0.05136,0.222091,0.066753
108.967,-0.050883,0.222711,0.070065
108.987,-0.051929,0.223015,0.072214
109.007,-0.054123,0.223187,0.073487
109.027,-0.056261,0.223093,0.074157
109.047,-0.055274,0.222597,0.074281
109.067,-0.051158,0.220448,0.074374
109.087,-0.047771,0.21606,0.074258
109.107,-0.047561,0.209901,0.073244
109.127,-0.049312,0.20283,0.07188
109.147,-0.050537,0.19522,0.069919
109.167,-0.051919,0.185902,0.067695
109.187,-0.054281,0.175391,0.064565
109.207,-0.057869,0.164394,0.06001
109.227,-0.060591,0.153264,0.054221
109.247,-0.061271,0.140699,0.048116
109.267,-0.060087,0.126747,0.042063
109.287,-0.059069,0.112032,0.036191
109.307,-0.058919,0.095947,0.030295
109.327,-0.056951,0.078845,0.024693
109.347,-0.055302,0.061326,0.019193
109.367,-0.055349,0.04318,0.013417
109.387,-0.053892,0.024095,0.007591
109.407,-0.049195,0.004654,0.002786
109.427,-0.04428,-0.012893,-0.00062
109.447,-0.044995,-0.028263,-0.004589
109.467,-0.05319,-0.043747,-0.008719
109.487,-0.062803,-0.058287,-0.011717
109.507,-0.059398,-0.07173,-0.018469
109.527,-0.04814,-0.090217,-0.024058
109.547,-0.04065,-0.115852,-0.028685
109.567,-0.03582,-0.140744,-0.031876
109.587,-0.030179,-0.162693,-0.033102
109.607,-0.024412,-0.184297,-0.034654
109.627,-0.021558,-0.204073,-0.037949
109.647,-0.021918,-0.219917,-0.041589
109.667,-0.024125,-0.229355,-0.045685
109.687,-0.026291,-0.230344,-0.049692
109.707,-0.026175,-0.223404,-0.053079
109.727,-0.021193,-0.208848,-0.055098
109.747,-0.010872,-0.186048,-0.056002
109.767,-0.001068,-0.156293,-0.055308
109.787,0.003051,-0.124334,-0.052632
109.807,0.005287,-0.091593,-0.048633
109.827,0.004509,-0.059106,-0.044606
109.847,-0.000603,-0.031019,-0.040361
109.867,-0.002624,-0.008709,-0.03593
109.887,0.000341,0.005023,-0.030692
109.907,0.002244,0.010863,-0.02672
109.927,0.000683,0.010472,-0.023464
109.947,-0.001745,0.007074,-0.02056
109.967,-0.002387,0.00324,-0.017609
109.987,-0.002845,0.000002191402,-0.013935
110.007,-0.004025,-0.002004,-0.010427
110.027,-0.005424,-0.001083,-0.007618
110.047,-0.007613,0.004012,-0.004696
110.123,-0.005388,0.016692,-0.003673
110.143,-0.004228,0.028749,-0.003448
110.163,-0.005532,0.038504,-0.004161
110.183,-0.011091,0.04415,-0.00534
110.203,-0.015906,0.045932,-0.007276
110.223,-0.014661,0.048566,-0.010933
110.243,-0.005226,0.055746,-0.016264
110.263,0.010546,0.065673,-0.023418
110.283,0.027217,0.075315,-0.031524
110.303,0.040107,0.081923,-0.037749
110.323,0.047695,0.084283,-0.042424
110.343,0.05214,0.083147,-0.044902
110.363,0.05726,0.08181,-0.045465
110.383,0.061599,0.076655,-0.046429
110.403,0.061187,0.06893,-0.04515
110.423,0.055033,0.062728,-0.040362
110.443,0.04546,0.05605,-0.035348
110.463,0.035828,0.049179,-0.030365
110.483,0.027724,0.044963,-0.024936
110.503,0.020063,0.04385,-0.020013
110.523,0.011722,0.044471,-0.016458
110.543,0.001791,0.040382,-0.007616
110.563,-0.013194,0.033816,-0.005299
110.583,-0.015994,0.02685,-0.005534
110.603,-0.011907,0.025328,-0.003945
110.623,-0.00935,0.026468,-0.004646
110.643,-0.009898,0.029654,-0.005881
110.663,-0.016183,0.033149,-0.007393
110.683,-0.024142,0.034054,-0.008634
110.703,-0.027501,0.034245,-0.009217
110.723,-0.026264,0.033363,-0.009249
110.743,-0.022791,0.031266,-0.009107
110.763,-0.020583,0.028836,-0.009859
110.783,-0.02027,0.027293,-0.010593
110.803,-0.019891,0.02652,-0.011295
110.823,-0.018841,0.026368,-0.011612
110.843,-0.018314,0.026097,-0.012595
110.863,-0.017923,0.025613,-0.013467
110.883,-0.017259,0.025722,-0.013952
110.903,-0.017141,0.025899,-0.014329
110.923,-0.017458,0.026052,-0.014811
110.943,-0.01822,0.026083,-0.015655
110.963,-0.018635,0.025757,-0.016683
110.983,-0.017511,0.024774,-0.017272
111.003,-0.014976,0.023126,-0.017808
111.023,-0.012957,0.02161,-0.018448
111.043,-0.013025,0.021204,-0.019474
111.063,-0.01475,0.021681,-0.020086
111.083,-0.01587,0.02211,-0.020518
111.103,-0.016597,0.022031,-0.021172
111.123,-0.016511,0.021881,-0.021408
111.143,-0.016417,0.021707,-0.021256
111.163,-0.017181,0.021588,-0.021176
111.183,-0.018035,0.021615,-0.020949
111.203,-0.018753,0.021498,-0.020655
111.223,-0.019302,0.021247,-0.020335
111.243,-0.018637,0.020879,-0.020173
111.263,-0.01839,0.020765,-0.020161
111.283,-0.018388,0.020688,-0.020226
111.303,-0.018636,0.020587,-0.020281
111.323,-0.01963,0.020698,-0.020378
111.343,-0.02034,0.020946,-0.020428
111.363,-0.020398,0.021225,-0.020555
111.383,-0.020134,0.021616,-0.020726
111.403,-0.019891,0.022012,-0.020746
111.423,-0.019864,0.022399,-0.020729
111.443,-0.019977,0.022733,-0.020446
111.463,-0.020123,0.022699,-0.020184
111.483,-0.019859,0.022536,-0.019739
111.503,-0.019093,0.022568,-0.019321
111.523,-0.018393,0.022823,-0.018871
111.543,-0.01813,0.023037,-0.018248
111.563,-0.01884,0.023256,-0.017649
111.583,-0.019967,0.023398,-0.017262
111.603,-0.021159,0.023358,-0.016957
111.623,-0.021903,0.023258,-0.016838
111.643,-0.021962,0.023381,-0.016632
111.663,-0.022083,0.023771,-0.016282
111.683,-0.022848,0.024246,-0.015927
111.703,-0.024318,0.024588,-0.015675
111.723,-0.025398,0.024641,-0.01548
111.743,-0.024936,0.024322,-0.015174
111.763,-0.023855,0.023913,-0.014991
111.783,-0.022857,0.023692,-0.014841
111.803,-0.021921,0.023668,-0.014529
111.823,-0.021567,0.023512,-0.014384
111.843,-0.02203,0.02345,-0.014264
111.863,-0.023101,0.02346,-0.014244
111.883,-0.024001,0.023551,-0.014335
111.903,-0.024824,0.023658,-0.014554
111.923,-0.025543,0.023749,-0.014791
111.943,-0.026228,0.023964,-0.014888
111.963,-0.027088,0.024119,-0.01483
111.983,-0.027867,0.02433,-0.014814
112.003,-0.028119,0.024695,-0.014849
112.023,-0.02734,0.024677,-0.014783
112.043,-0.025959,0.024248,-0.014671
112.063,-0.025403,0.023717,-0.014732
112.083,-0.024726,0.023418,-0.014694
112.103,-0.023948,0.02337,-0.014521
112.192,-0.024697,0.023889,-0.014559
112.212,-0.025253,0.023609,-0.014691
112.232,-0.025731,0.023438,-0.014618
112.252,-0.025889,0.023764,-0.014688
112.272,-0.02573,0.024279,-0.014484
112.292,-0.025044,0.024417,-0.014251
112.312,-0.024486,0.024112,-0.014111
112.332,-0.023986,0.023809,-0.013986
112.352,-0.02346,0.023764,-0.01395
112.372,-0.022726,0.023926,-0.013763
112.392,-0.02279,0.024025,-0.013576
112.412,-0.02388,0.024415,-0.013338
112.432,-0.025617,0.024864,-0.013094
112.452,-0.027755,0.025344,-0.012785
112.472,-0.02999,0.025638,-0.012458
112.492,-0.031157,0.025847,-0.011842
112.512,-0.031373,0.026103,-0.011076
112.532,-0.031736,0.026632,-0.010345
112.552,-0.031871,0.027042,-0.009526
112.572,-0.031424,0.02692,-0.008644
112.592,-0.030765,0.02678,-0.007922
112.612,-0.030261,0.026804,-0.00736
112.632,-0.030006,0.027057,-0.006655
112.652,-0.030041,0.027316,-0.006122
112.672,-0.030545,0.027535,-0.0058
112.692,-0.031416,0.027748,-0.005674
112.712,-0.032236,0.027961,-0.005608
112.732,-0.032789,0.028121,-0.005576
112.752,-0.033222,0.028209,-0.005631
112.772,-0.033877,0.028219,-0.005769
112.792,-0.034752,0.028192,-0.005915
112.812,-0.035635,0.028069,-0.006062
112.832,-0.036338,0.027918,-0.006215
112.852,-0.036869,0.027744,-0.006386
112.872,-0.03746,0.027523,-0.006543
112.892,-0.038378,0.027295,-0.006636
112.912,-0.039631,0.02711,-0.006626
112.932,-0.041111,0.026923,-0.006594
112.952,-0.042604,0.026699,-0.006734
112.972,-0.044975,0.026317,-0.006878
112.992,-0.048419,0.026087,-0.006672
113.012,-0.050581,0.025629,-0.0065
113.032,-0.050354,0.024655,-0.006883
113.052,-0.049965,0.023384,-0.007509
113.072,-0.051044,0.021944,-0.007989
113.092,-0.052452,0.020065,-0.008736
113.112,-0.054178,0.01844,-0.008574
113.132,-0.055706,0.017056,-0.008163
113.152,-0.056819,0.015685,-0.007791
113.172,-0.058017,0.014513,-0.007592
113.192,-0.060437,0.013342,-0.007922
113.212,-0.062182,0.012353,-0.008591
113.232,-0.062714,0.011472,-0.00918
113.252,-0.063155,0.010719,-0.009846
113.272,-0.063964,0.010063,-0.010491
113.292,-0.064537,0.009889,-0.010203
113.312,-0.064346,0.009999,-0.00989
113.332,-0.064478,0.009978,-0.009535
113.352,-0.065298,0.009909,-0.009716
113.372,-0.065558,0.00969,-0.009612
113.392,-0.065169,0.009625,-0.008943
113.412,-0.064562,0.009787,-0.008211
113.432,-0.063472,0.009869,-0.007379
113.452,-0.061919,0.009936,-0.006685
113.472,-0.060675,0.009956,-0.006041
113.492,-0.060135,0.00995,-0.005575
113.512,-0.060019,0.009964,-0.005152
113.532,-0.059941,0.010078,-0.004674
113.552,-0.06003,0.010243,-0.004364
113.572,-0.060277,0.010469,-0.004176
113.592,-0.060404,0.010763,-0.004125
113.612,-0.06048,0.011095,-0.004284
113.632,-0.060564,0.011598,-0.004414
113.652,-0.060351,0.012247,-0.004761
113.672,-0.059805,0.012947,-0.005208
113.692,-0.059219,0.013858,-0.005638
113.712,-0.059053,0.014862,-0.006096
113.732,-0.05894,0.015933,-0.006616
113.752,-0.058419,0.01702,-0.007139
113.772,-0.057626,0.018072,-0.007636
113.792,-0.057092,0.019122,-0.00818
113.812,-0.056933,0.020191,-0.0087
113.832,-0.056873,0.021243,-0.00917
113.852,-0.056714,0.022101,-0.009483
113.872,-0.05659,0.022591,-0.009614
113.892,-0.05669,0.022805,-0.009591
113.912,-0.056805,0.022949,-0.009432
113.932,-0.056897,0.023141,-0.009267
113.952,-0.056999,0.023371,-0.009159
113.972,-0.057582,0.023526,-0.008976
113.992,-0.058134,0.023668,-0.009108
114.012,-0.058194,0.023736,-0.009094
114.032,-0.058011,0.023803,-0.009104
114.052,-0.057719,0.023613,-0.008935
114.072,-0.057667,0.023431,-0.008969
114.092,-0.057763,0.023173,-0.008945
114.112,-0.057469,0.023055,-0.009163
114.132,-0.056704,0.023192,-0.009402
114.152,-0.056242,0.023262,-0.009661
114.172,-0.05573,0.023419,-0.010001
