accel_time_list,accel_x_list,accel_y_list,accel_z_list
0.315000,-14.492103,-1.754950,1.845930
0.335000,-15.502457,-2.313996,1.856703
0.355000,-16.321182,-2.923271,2.023922
0.375000,-16.920626,-3.559265,2.291126
0.395000,-17.247013,-4.140582,2.564495
0.415000,-17.247156,-4.625300,2.794080
0.435000,-17.021811,-4.987505,2.945065
0.455000,-16.661581,-5.211326,3.071045
0.475000,-16.224775,-5.314230,3.202531
0.495000,-15.739034,-5.320100,3.320904
0.515000,-15.230508,-5.266150,3.409567
0.535000,-14.724623,-5.193115,3.468123
0.555000,-14.222233,-5.133717,3.499300
0.575000,-13.712341,-5.108405,3.507904
0.595000,-13.177317,-5.125760,3.498591
0.615000,-12.617592,-5.184784,3.473285
0.635000,-12.057521,-5.278327,3.436013
0.655000,-11.530297,-5.396397,3.409384
0.675000,-11.060077,-5.515765,3.400968
0.695000,-10.643448,-5.618916,3.398118
0.715000,-10.288344,-5.699616,3.383274
0.735000,-10.027570,-5.765545,3.352343
0.755000,-9.866845,-5.823609,3.316452
0.775000,-9.788644,-5.873217,3.285917
0.795000,-9.772916,-5.916113,3.263220
0.815000,-9.796332,-5.947972,3.246921
0.835000,-9.852069,-5.964797,3.253764
0.855000,-9.931308,-5.941236,3.268994
0.875000,-10.020713,-5.871136,3.278897
0.895000,-10.105556,-5.776178,3.285971
0.915000,-10.181394,-5.686257,3.310074
0.935000,-10.259285,-5.596976,3.360737
0.955000,-10.347937,-5.471273,3.423906
0.975000,-10.420912,-5.295150,3.502548
0.995000,-10.460232,-5.115343,3.620075
1.015000,-10.498552,-4.944553,3.753664
1.035000,-10.523785,-4.755821,3.878179
1.055000,-10.483012,-4.558874,3.995427
1.075000,-10.380184,-4.393821,4.118865
1.095000,-10.240767,-4.243865,4.239712
1.115000,-10.066725,-4.082027,4.338974
1.135000,-9.842185,-3.910240,4.413292
1.155000,-9.559677,-3.732430,4.472665
1.175000,-9.224654,-3.539412,4.520650
1.195000,-8.842733,-3.334629,4.560105
1.215000,-8.405346,-3.127999,4.598440
1.235000,-7.910914,-2.929393,4.632424
1.255000,-7.374145,-2.738496,4.651624
1.275000,-6.815900,-2.553181,4.653074
1.295000,-6.227456,-2.363036,4.633799
1.315000,-5.618971,-2.178845,4.577857
1.335000,-5.051061,-2.026541,4.476648
1.355000,-4.530325,-1.941036,4.320334
1.375000,-4.006858,-1.862283,4.108129
1.395000,-3.546275,-1.705904,3.818986
1.415000,-3.464270,-1.538790,3.504808
1.435000,-3.677721,-1.309308,3.254370
1.455000,-3.567698,-1.087547,2.999079
1.475000,-3.065679,-0.848430,2.565910
1.495000,-2.514147,-0.702684,2.092515
1.515000,-2.660954,-1.016723,1.441974
1.535000,-4.030195,-1.260021,0.865068
1.555000,-6.350460,-0.960956,0.373816
1.575000,-12.988886,-1.777915,3.641109
1.595000,-30.112730,-5.641966,-1.327024
1.615000,23.759867,2.231540,3.156082
1.635000,-0.383219,8.015402,-1.304495
1.655000,-11.675645,1.656755,4.547787
1.675000,-2.467169,-5.129032,2.538457
1.695000,-1.531773,-8.835690,3.270096
1.715000,-0.967949,-6.956480,4.200161
1.735000,-0.788069,-4.094100,5.820305
1.755000,-0.769820,-3.629551,6.899446
1.775000,-0.326292,-4.131713,7.000507
1.795000,-0.339843,-5.524872,6.685901
1.815000,-0.550133,-4.972367,7.128853
1.835000,-0.981534,-4.763292,7.576023
1.855000,-0.809076,-5.025993,7.787536
1.875000,-0.677757,-5.248468,7.879215
1.895000,-0.591600,-5.265424,7.949833
1.915000,-0.343093,-5.171109,7.928409
1.935000,-0.141749,-5.282582,7.927048
1.955000,-0.150807,-5.458512,8.020148
1.975000,-0.181383,-5.406923,8.132546
1.995000,-0.099972,-5.288461,8.188745
2.015000,-0.088737,-5.247245,8.346479
2.035000,-0.093485,-5.300244,8.410830
2.055000,-0.083426,-5.374009,8.436759
2.075000,-0.023423,-5.430787,8.453566
2.095000,-0.008123,-5.379969,8.518258
2.115000,-0.012917,-5.277019,8.595810
2.135000,0.009245,-5.253934,8.630408
2.155000,0.063696,-5.299509,8.620426
2.175000,0.074909,-5.379928,8.634767
2.195000,0.070841,-5.364922,8.677838
2.215000,0.079311,-5.322596,8.718441
2.235000,0.099939,-5.310675,8.741147
2.255000,0.100581,-5.315419,8.770653
2.275000,0.099897,-5.314006,8.794655
2.295000,0.110465,-5.317197,8.806847
2.337000,0.106859,-5.300636,8.840899
2.357000,0.113697,-5.300809,8.853373
2.377000,0.129961,-5.298369,8.855754
2.397000,0.124743,-5.293493,8.882688
2.417000,0.121747,-5.299367,8.900695
2.437000,0.120512,-5.304445,8.912898
2.457000,0.123113,-5.306995,8.924425
2.477000,0.125835,-5.307373,8.936853
2.497000,0.128734,-5.313569,8.943564
2.517000,0.130863,-5.321223,8.944585
2.537000,0.133190,-5.325644,8.951645
2.557000,0.135936,-5.325808,8.961548
2.577000,0.135891,-5.328112,8.969450
2.597000,0.134436,-5.325871,8.978298
2.617000,0.133213,-5.326018,8.984104
2.637000,0.136095,-5.340944,8.987522
2.657000,0.140228,-5.354760,8.987361
2.677000,0.139162,-5.356825,8.991759
2.697000,0.137277,-5.345850,8.999246
2.717000,0.138156,-5.345752,9.008746
2.737000,0.138268,-5.357436,9.009278
2.757000,0.141243,-5.369655,9.006744
2.777000,0.141994,-5.371527,9.011771
2.797000,0.140461,-5.370908,9.016995
2.817000,0.139300,-5.376207,9.019529
2.837000,0.141068,-5.386437,9.017634
2.857000,0.141551,-5.391548,9.019417
2.877000,0.140260,-5.392196,9.024900
2.897000,0.140446,-5.396523,9.026353
2.917000,0.142945,-5.405586,9.023364
2.937000,0.142917,-5.410022,9.025530
2.957000,0.140243,-5.410124,9.030423
2.977000,0.139391,-5.411622,9.032900
2.997000,0.140277,-5.415736,9.033031
3.017000,0.139833,-5.420704,9.034330
3.037000,0.138499,-5.422805,9.037580
3.057000,0.140101,-5.425358,9.036842
3.077000,0.141765,-5.431640,9.036631
3.097000,0.141289,-5.435338,9.037605
3.117000,0.139902,-5.436210,9.039898
3.137000,0.139992,-5.437959,9.040683
3.157000,0.140459,-5.439581,9.042136
3.177000,0.139687,-5.443499,9.043798
3.197000,0.138431,-5.446657,9.045201
3.217000,0.138835,-5.448871,9.045028
3.237000,0.139851,-5.453453,9.046099
3.257000,0.139126,-5.456002,9.047378
3.277000,0.137400,-5.456316,9.049761
3.297000,0.137356,-5.456012,9.051718
3.317000,0.136846,-5.458424,9.053166
3.337000,0.136995,-5.461995,9.053448
3.357000,0.135805,-5.464171,9.053084
3.377000,0.136533,-5.464196,9.054272
3.397000,0.135791,-5.467244,9.055615
3.417000,0.135097,-5.468833,9.057111
3.437000,0.134129,-5.470445,9.058266
3.457000,0.134099,-5.472756,9.058643
3.477000,0.134240,-5.475499,9.058805
3.497000,0.134155,-5.476944,9.059401
3.517000,0.134320,-5.477612,9.058536
3.537000,0.134672,-5.478145,9.060008
3.557000,0.133746,-5.480817,9.060457
3.577000,0.132974,-5.483805,9.061372
3.597000,0.132695,-5.487185,9.060604
3.617000,0.132788,-5.490015,9.061031
3.637000,0.132103,-5.492281,9.061422
3.657000,0.131482,-5.493696,9.061724
3.677000,0.131281,-5.493899,9.062681
3.697000,0.131235,-5.494424,9.063566
3.717000,0.131315,-5.497272,9.063601
3.737000,0.131712,-5.499666,9.063097
3.757000,0.131273,-5.501326,9.062780
3.777000,0.132026,-5.501880,9.063654
3.797000,0.131472,-5.503432,9.064211
3.817000,0.131043,-5.505132,9.064584
3.837000,0.131097,-5.507357,9.063825
3.857000,0.131677,-5.509263,9.063153
3.877000,0.131677,-5.511856,9.063286
3.897000,0.131151,-5.512669,9.063968
3.917000,0.130941,-5.512779,9.064954
3.937000,0.131116,-5.514271,9.064686
3.957000,0.130834,-5.516578,9.064635
3.977000,0.130914,-5.518155,9.064131
3.997000,0.130802,-5.519740,9.063536
4.017000,0.131553,-5.522578,9.063377
4.037000,0.131148,-5.524287,9.063724
4.057000,0.130770,-5.524422,9.064114
4.077000,0.130061,-5.524627,9.064883
4.097000,0.130747,-5.526076,9.065262
4.117000,0.130900,-5.528468,9.064775
4.137000,0.130956,-5.529734,9.064053
4.157000,0.131131,-5.530006,9.065134
4.177000,0.131040,-5.532263,9.064744
4.197000,0.131406,-5.534114,9.064526
4.217000,0.131505,-5.534773,9.064645
4.237000,0.131722,-5.535498,9.064619
4.257000,0.132607,-5.537556,9.064977
4.277000,0.132478,-5.539737,9.064971
4.297000,0.132398,-5.540723,9.065157
4.317000,0.132966,-5.541843,9.064551
4.369000,0.132833,-5.543095,9.064574
4.389000,0.133013,-5.543856,9.064884
4.409000,0.133048,-5.545711,9.064784
4.429000,0.133417,-5.547403,9.064469
4.449000,0.133759,-5.548504,9.064062
4.469000,0.133834,-5.549762,9.064305
4.489000,0.134459,-5.552084,9.063828
4.509000,0.134766,-5.553904,9.063259
4.529000,0.134616,-5.554677,9.063462
4.549000,0.134730,-5.555106,9.063687
4.569000,0.135059,-5.558189,9.063240
4.589000,0.135600,-5.559972,9.062774
4.609000,0.136063,-5.558314,9.062407
4.629000,0.136642,-5.558492,9.062882
4.649000,0.138412,-5.568699,9.060049
4.669000,0.138728,-5.573418,9.058130
4.689000,0.138250,-5.566885,9.057906
4.709000,0.139573,-5.562117,9.061060
4.729000,0.138608,-5.570708,9.060998
4.749000,0.136743,-5.576700,9.060266
4.769000,0.137866,-5.570253,9.061027
4.789000,0.141156,-5.566529,9.064149
4.809000,0.142426,-5.570479,9.064223
4.829000,0.141433,-5.574557,9.061687
4.849000,0.142293,-5.576895,9.064324
4.869000,0.141516,-5.574445,9.069736
4.889000,0.138210,-5.568931,9.075645
4.909000,0.138025,-5.566800,9.074001
4.929000,0.141720,-5.567970,9.075390
4.949000,0.143320,-5.570925,9.078824
4.969000,0.144640,-5.575669,9.078369
4.989000,0.144462,-5.575051,9.075908
5.009000,0.145196,-5.563138,9.083574
5.029000,0.145851,-5.563364,9.092649
5.049000,0.143028,-5.562557,9.093013
5.069000,0.147751,-5.544760,9.098856
5.089000,0.153360,-5.538059,9.106915
5.109000,0.160925,-5.549069,9.098135
5.129000,0.169563,-5.546826,9.096984
5.149000,0.171339,-5.542737,9.102644
5.169000,0.173288,-5.543382,9.109349
5.189000,0.176392,-5.546582,9.106649
5.209000,0.184157,-5.542759,9.102492
5.229000,0.197518,-5.535479,9.100532
5.249000,0.201313,-5.539260,9.105797
5.269000,0.202460,-5.541616,9.107036
5.289000,0.205176,-5.540141,9.104815
5.309000,0.219980,-5.530206,9.101897
5.329000,0.222209,-5.520705,9.115624
5.349000,0.217952,-5.519343,9.122128
5.369000,0.231263,-5.522808,9.117768
5.389000,0.244513,-5.533828,9.106126
5.409000,0.253201,-5.536381,9.100226
5.429000,0.252368,-5.538718,9.108081
5.449000,0.244194,-5.543114,9.118753
5.469000,0.249294,-5.545072,9.121251
5.489000,0.268110,-5.550649,9.104474
5.509000,0.282284,-5.552579,9.098879
5.529000,0.278719,-5.549008,9.108183
5.549000,0.283378,-5.538050,9.115790
5.569000,0.290288,-5.537066,9.114918
5.589000,0.299308,-5.543561,9.106320
5.609000,0.303522,-5.554517,9.107314
5.629000,0.306616,-5.570703,9.105856
5.649000,0.324259,-5.565968,9.094261
5.669000,0.333467,-5.564226,9.097554
5.689000,0.321010,-5.578782,9.107063
5.709000,0.323857,-5.598028,9.111425
5.729000,0.344561,-5.610570,9.096566
5.749000,0.362567,-5.602612,9.089876
5.769000,0.367417,-5.583695,9.100444
5.789000,0.372362,-5.576581,9.105351
5.809000,0.386260,-5.570207,9.103698
5.829000,0.392836,-5.562317,9.110033
5.849000,0.391206,-5.561258,9.122338
5.869000,0.398666,-5.556163,9.124800
5.889000,0.415964,-5.528637,9.128146
5.909000,0.419657,-5.496862,9.145753
5.929000,0.422141,-5.474048,9.165028
5.949000,0.430968,-5.458189,9.173766
5.969000,0.442963,-5.434660,9.178275
5.989000,0.448277,-5.405524,9.195022
6.009000,0.452294,-5.384605,9.213540
6.029000,0.462807,-5.365427,9.220141
6.049000,0.477308,-5.336242,9.221673
6.069000,0.481442,-5.308018,9.239350
6.089000,0.485150,-5.288457,9.258383
6.109000,0.493299,-5.273640,9.264943
6.129000,0.504743,-5.249131,9.270863
6.149000,0.509320,-5.219744,9.287043
6.169000,0.512654,-5.193835,9.304544
6.189000,0.522037,-5.171369,9.313588
6.209000,0.536066,-5.142855,9.313515
6.229000,0.539683,-5.107491,9.329843
6.249000,0.539961,-5.080105,9.353333
6.269000,0.544042,-5.051456,9.363517
6.289000,0.551483,-5.025106,9.375801
6.309000,0.554371,-5.007681,9.390692
6.329000,0.562235,-4.994113,9.399496
6.349000,0.569111,-4.974930,9.406057
