gyro_time_list,gyro_x_list,gyro_y_list,gyro_z_list
0.410000,-2.704195,-0.287380,0.064884
0.430000,-2.542119,-0.241149,0.043700
0.450000,-2.333062,-0.189626,0.044722
0.470000,-2.071267,-0.137033,0.072098
0.490000,-1.765302,-0.085907,0.126012
0.510000,-1.433483,-0.038719,0.201874
0.530000,-1.093001,0.001744,0.297360
0.550000,-0.767220,0.033901,0.407067
0.570000,-0.482267,0.056459,0.523755
0.590000,-0.253905,0.068401,0.639658
0.610000,-0.095519,0.068971,0.743024
0.630000,-0.019662,0.060726,0.820399
0.650000,-0.030569,0.048142,0.859881
0.670000,-0.113583,0.039134,0.857894
0.690000,-0.236109,0.035420,0.818737
0.710000,-0.368463,0.036470,0.755426
0.730000,-0.487403,0.043874,0.676603
0.750000,-0.568365,0.057397,0.592555
0.770000,-0.594285,0.076369,0.512350
0.790000,-0.561858,0.098902,0.442490
0.810000,-0.480507,0.122798,0.385982
0.830000,-0.366567,0.146219,0.342609
0.850000,-0.235662,0.168530,0.310506
0.870000,-0.101411,0.188435,0.287533
0.890000,0.021464,0.205260,0.270961
0.910000,0.123029,0.218509,0.258393
0.930000,0.199629,0.227818,0.247586
0.950000,0.253396,0.233468,0.236338
0.970000,0.289055,0.236921,0.223948
0.990000,0.311124,0.241193,0.214146
1.010000,0.333694,0.242305,0.207745
1.030000,0.361654,0.240540,0.202999
1.050000,0.392085,0.238733,0.194657
1.070000,0.426197,0.235990,0.179927
1.090000,0.469087,0.230745,0.158975
1.110000,0.526656,0.220966,0.131149
1.130000,0.601192,0.206879,0.095476
1.150000,0.689665,0.188562,0.051472
1.170000,0.784144,0.165202,-0.000193
1.190000,0.869216,0.136595,-0.057140
1.210000,0.928062,0.102878,-0.115276
1.230000,0.948737,0.064848,-0.170330
1.250000,0.926994,0.023532,-0.218685
1.270000,0.865054,-0.020178,-0.258905
1.290000,0.765184,-0.064471,-0.292389
1.310000,0.630668,-0.106819,-0.321725
1.330000,0.465543,-0.143724,-0.349265
1.350000,0.279601,-0.172336,-0.375422
1.370000,0.090684,-0.191030,-0.398188
1.390000,-0.076287,-0.199257,-0.414049
1.410000,-0.195447,-0.197754,-0.419377
1.430000,-0.251489,-0.188036,-0.411875
1.450000,-0.246690,-0.171732,-0.391046
1.470000,-0.201861,-0.149666,-0.357855
1.490000,-0.136411,-0.121774,-0.314764
1.510000,-0.061225,-0.089003,-0.264247
1.530000,0.017225,-0.051946,-0.207979
1.550000,0.096818,-0.012358,-0.147327
1.570000,0.177283,0.027539,-0.083991
1.590000,0.252243,0.068167,-0.016550
1.610000,0.315035,0.108235,0.058162
1.630000,0.365684,0.141310,0.139523
1.650000,0.395166,0.167901,0.226289
1.670000,0.384211,0.186836,0.309729
1.690000,0.328800,0.197721,0.378889
1.710000,0.247689,0.200598,0.430841
1.730000,0.136575,0.201011,0.459218
1.750000,0.009284,0.202629,0.461726
1.770000,-0.105126,0.205277,0.446866
1.790000,-0.185551,0.209440,0.420923
1.810000,-0.213943,0.215427,0.391905
1.830000,-0.182684,0.222464,0.366767
1.850000,-0.095624,0.228794,0.350590
1.870000,0.041715,0.232480,0.345236
1.890000,0.221524,0.231976,0.348367
1.910000,0.432411,0.225682,0.355551
1.930000,0.641514,0.213067,0.359963
1.950000,0.796756,0.195486,0.355612
1.970000,0.852572,0.175761,0.338798
1.990000,0.804169,0.155353,0.308033
2.010000,0.679472,0.135844,0.265005
2.030000,0.506685,0.118006,0.212762
2.050000,0.319278,0.102846,0.154764
2.070000,0.157470,0.090765,0.095302
2.090000,0.054896,0.081772,0.038341
2.110000,0.026860,0.075433,-0.013135
2.130000,0.064299,0.070903,-0.057383
2.150000,0.141179,0.067320,-0.094229
2.170000,0.237852,0.064024,-0.124383
2.190000,0.337174,0.060231,-0.149210
2.210000,0.424830,0.055505,-0.170406
2.230000,0.490706,0.049551,-0.189719
2.250000,0.526766,0.042705,-0.208864
2.270000,0.523676,0.036838,-0.227705
2.290000,0.486127,0.031220,-0.246460
2.310000,0.421555,0.026394,-0.266569
2.330000,0.334835,0.025357,-0.287752
2.350000,0.242324,0.027711,-0.307613
2.370000,0.165056,0.033090,-0.322920
2.390000,0.120329,0.040802,-0.332272
2.422000,0.145461,0.050067,-0.337315
2.442000,0.205525,0.058605,-0.343174
2.462000,0.285778,0.065467,-0.350610
2.482000,0.368091,0.070312,-0.358476
2.502000,0.435183,0.073187,-0.363993
2.522000,0.474217,0.074520,-0.363594
2.542000,0.480758,0.074630,-0.354482
2.562000,0.458127,0.072878,-0.334890
2.582000,0.410733,0.068540,-0.304643
2.602000,0.340354,0.061124,-0.264972
2.622000,0.247003,0.050873,-0.218773
2.642000,0.128961,0.038435,-0.169459
2.662000,-0.014807,0.024548,-0.119467
2.682000,-0.183220,0.010048,-0.070298
2.702000,-0.371791,-0.004545,-0.022047
2.722000,-0.572666,-0.018616,0.026397
2.742000,-0.773738,-0.031628,0.077078
2.762000,-0.957304,-0.043573,0.132334
2.782000,-1.103879,-0.054413,0.194456
2.802000,-1.200018,-0.063952,0.264664
2.822000,-1.243312,-0.071751,0.342651
2.842000,-1.242247,-0.077057,0.426706
2.862000,-1.210572,-0.079278,0.513898
2.882000,-1.156999,-0.078198,0.600031
2.902000,-1.086001,-0.074395,0.679603
2.922000,-1.003314,-0.068571,0.745530
2.942000,-0.917682,-0.059151,0.796137
2.962000,-0.821210,-0.050309,0.828970
2.982000,-0.713774,-0.046714,0.839316
3.002000,-0.624872,-0.046022,0.813435
3.022000,-0.571557,-0.045645,0.748338
3.042000,-0.540405,-0.046040,0.649561
3.062000,-0.536052,-0.048830,0.519481
3.082000,-0.555061,-0.052556,0.359517
3.102000,-0.582208,-0.056303,0.173562
3.122000,-0.604705,-0.059308,-0.030043
3.142000,-0.615096,-0.061343,-0.237323
3.162000,-0.608255,-0.062697,-0.429430
3.182000,-0.581171,-0.064042,-0.587161
3.202000,-0.534852,-0.066260,-0.699097
3.222000,-0.475329,-0.069516,-0.765978
3.242000,-0.406254,-0.073636,-0.797119
3.262000,-0.336654,-0.078295,-0.806202
3.282000,-0.277195,-0.082964,-0.806468
3.302000,-0.234785,-0.087094,-0.806558
3.322000,-0.210899,-0.089937,-0.811803
3.342000,-0.199725,-0.091125,-0.823330
3.362000,-0.190473,-0.090749,-0.839124
3.382000,-0.176089,-0.089094,-0.856959
3.402000,-0.151402,-0.086377,-0.873562
3.422000,-0.115076,-0.083046,-0.885920
3.442000,-0.071047,-0.079621,-0.891786
3.462000,-0.023261,-0.076635,-0.889694
3.482000,0.022374,-0.074573,-0.878874
3.502000,0.059089,-0.073555,-0.859282
3.522000,0.081311,-0.073513,-0.830708
3.542000,0.085355,-0.074194,-0.792669
3.562000,0.070730,-0.075341,-0.743661
3.582000,0.039871,-0.076717,-0.680062
3.602000,-0.005884,-0.078315,-0.595870
3.622000,-0.066234,-0.081015,-0.485765
3.642000,-0.144052,-0.085712,-0.347197
3.662000,-0.247303,-0.092393,-0.181248
3.682000,-0.384711,-0.101151,0.007125
3.702000,-0.549907,-0.111717,0.210695
3.722000,-0.723868,-0.123759,0.423071
3.742000,-0.904331,-0.137563,0.637943
3.762000,-1.088761,-0.153665,0.844202
3.782000,-1.274516,-0.171133,1.026555
3.802000,-1.459021,-0.188352,1.157467
3.822000,-1.568159,-0.203005,1.220101
3.842000,-1.607739,-0.213485,1.221013
3.862000,-1.589332,-0.219733,1.179295
3.882000,-1.527768,-0.222334,1.109627
3.902000,-1.434142,-0.221956,1.023623
3.922000,-1.313867,-0.219417,0.930871
3.942000,-1.174439,-0.215785,0.838622
3.962000,-1.027386,-0.211991,0.750679
3.982000,-0.887062,-0.208676,0.667911
4.002000,-0.768767,-0.206234,0.589393
4.022000,-0.686935,-0.204787,0.512898
4.042000,-0.650179,-0.204054,0.435849
4.062000,-0.657410,-0.203591,0.356622
4.082000,-0.698016,-0.202808,0.274281
4.102000,-0.756657,-0.201135,0.189528
4.122000,-0.816977,-0.198260,0.104987
4.142000,-0.866330,-0.193845,0.023529
4.162000,-0.895969,-0.187644,-0.052051
4.182000,-0.901896,-0.179650,-0.119452
4.202000,-0.884471,-0.169994,-0.176888
4.222000,-0.844646,-0.158938,-0.222920
4.242000,-0.784032,-0.147161,-0.256789
4.262000,-0.706367,-0.135247,-0.278105
4.282000,-0.617505,-0.124057,-0.286021
4.302000,-0.524943,-0.115324,-0.281148
4.322000,-0.439626,-0.110019,-0.266780
4.342000,-0.374508,-0.108195,-0.246795
4.362000,-0.340464,-0.109625,-0.223735
4.382000,-0.343528,-0.113832,-0.198570
4.402000,-0.383712,-0.120222,-0.170948
4.449000,-0.492302,-0.131641,-0.130972
4.469000,-0.625160,-0.144851,-0.086858
4.489000,-0.780622,-0.159427,-0.040736
4.509000,-0.953152,-0.175111,0.004059
4.529000,-1.130885,-0.191439,0.044401
4.549000,-1.295499,-0.207685,0.078417
4.569000,-1.426298,-0.222938,0.106209
4.589000,-1.507514,-0.236358,0.130121
4.609000,-1.531894,-0.247695,0.153462
4.629000,-1.501294,-0.257434,0.179303
4.649000,-1.426921,-0.266171,0.209167
4.669000,-1.327224,-0.274415,0.241532
4.689000,-1.222245,-0.282339,0.273132
4.709000,-1.136063,-0.289697,0.300161
4.729000,-1.087427,-0.295848,0.319728
4.749000,-1.077181,-0.300593,0.331863
4.769000,-1.092902,-0.304213,0.337828
4.789000,-1.119889,-0.307075,0.339146
4.809000,-1.144956,-0.309125,0.336753
4.829000,-1.159962,-0.310357,0.330994
4.849000,-1.165439,-0.310854,0.322626
4.869000,-1.165071,-0.310576,0.312051
4.889000,-1.165536,-0.309540,0.299830
4.909000,-1.170997,-0.307704,0.286618
4.929000,-1.183087,-0.305000,0.272921
4.949000,-1.200466,-0.301376,0.259133
4.969000,-1.219888,-0.296719,0.245656
4.989000,-1.238062,-0.290883,0.232763
5.009000,-1.251566,-0.283677,0.220840
5.029000,-1.257433,-0.275026,0.210292
5.049000,-1.254103,-0.264888,0.201445
5.069000,-1.241561,-0.253350,0.194579
5.089000,-1.219959,-0.240676,0.189791
5.109000,-1.188997,-0.227315,0.187145
5.129000,-1.149234,-0.213453,0.186746
5.149000,-1.101931,-0.199426,0.189400
5.169000,-1.047771,-0.186597,0.195174
5.189000,-0.991610,-0.175935,0.203006
5.209000,-0.938702,-0.167997,0.210996
5.229000,-0.907677,-0.164378,0.214615
5.249000,-0.881221,-0.164904,0.215053
5.269000,-0.853127,-0.172274,0.215281
5.289000,-0.847960,-0.183092,0.212119
5.309000,-0.862728,-0.196610,0.205166
5.329000,-0.888347,-0.212635,0.194726
5.349000,-0.917039,-0.230724,0.182209
5.369000,-0.948312,-0.249972,0.168982
5.389000,-0.981752,-0.269322,0.156038
5.409000,-1.016294,-0.288574,0.145294
5.429000,-1.050768,-0.307632,0.138334
5.449000,-1.081168,-0.326703,0.136042
5.469000,-1.102980,-0.345583,0.137615
5.489000,-1.118144,-0.363512,0.140608
5.509000,-1.132547,-0.378905,0.142145
5.529000,-1.145608,-0.390484,0.140976
5.549000,-1.153821,-0.397517,0.137325
5.569000,-1.152815,-0.399909,0.132225
5.589000,-1.138631,-0.398357,0.126923
5.609000,-1.111499,-0.393937,0.122440
5.629000,-1.075844,-0.386999,0.119096
5.649000,-1.035349,-0.377888,0.117080
5.669000,-0.993282,-0.366836,0.116265
5.689000,-0.951459,-0.353820,0.116416
5.709000,-0.909479,-0.339031,0.116995
5.729000,-0.864748,-0.322763,0.117540
5.749000,-0.815002,-0.305214,0.117831
5.769000,-0.758714,-0.286830,0.117634
5.789000,-0.691247,-0.268166,0.117123
5.809000,-0.616704,-0.249523,0.115961
5.829000,-0.542195,-0.230193,0.112830
5.849000,-0.470100,-0.210235,0.107061
5.869000,-0.400533,-0.189704,0.098490
5.889000,-0.330912,-0.168965,0.087056
5.909000,-0.257945,-0.148157,0.073382
5.929000,-0.182178,-0.126858,0.059580
5.949000,-0.102704,-0.106961,0.047368
5.969000,-0.015496,-0.089437,0.036806
5.989000,0.079482,-0.076742,0.027342
6.009000,0.175213,-0.070876,0.015981
6.029000,0.258039,-0.073070,0.001717
6.049000,0.314507,-0.082017,-0.016105
6.069000,0.302154,-0.092378,-0.037891
6.089000,0.235428,-0.107322,-0.068311
6.109000,0.169673,-0.125627,-0.097805
6.129000,0.080520,-0.139009,-0.133801
6.149000,-0.028634,-0.144742,-0.170658
6.169000,-0.104039,-0.141859,-0.205512
6.189000,-0.115197,-0.133034,-0.230029
6.209000,-0.077153,-0.121476,-0.240987
6.229000,-0.026104,-0.108681,-0.242573
6.249000,0.033563,-0.096543,-0.241014
6.269000,0.088471,-0.087811,-0.238910
6.289000,0.122072,-0.084060,-0.239152
6.309000,0.144370,-0.082521,-0.243313
6.329000,0.152799,-0.081539,-0.248583
6.349000,0.147160,-0.078996,-0.256112
6.369000,0.133684,-0.074654,-0.264974
6.389000,0.121927,-0.066539,-0.272272
6.409000,0.109186,-0.054817,-0.277183
6.429000,0.105961,-0.039561,-0.281257
