accel_time_list,accel_x_list,accel_y_list,accel_z_list
0.595,-6.679823,-6.394913,-1.122881
0.615,-6.63553,-6.469133,-1.161188
0.635,-6.623951,-6.488306,-1.164382
0.655,-6.660091,-6.453544,-1.137833
0.675,-6.720645,-6.401008,-1.101759
0.695,-6.805158,-6.36153,-1.070884
0.715,-6.895699,-6.345005,-1.042635
0.735,-6.973228,-6.342249,-1.020533
0.755,-7.033942,-6.347062,-1.007351
0.775,-7.080371,-6.343689,-0.988616
0.795,-7.122593,-6.335463,-0.970649
0.815,-7.170461,-6.327205,-0.95084
0.835,-7.215176,-6.322625,-0.924204
0.855,-7.244893,-6.315604,-0.900124
0.875,-7.258419,-6.297791,-0.87469
0.895,-7.267594,-6.266029,-0.842044
0.915,-7.28643,-6.229623,-0.800209
0.935,-7.321449,-6.199693,-0.743185
0.955,-7.358867,-6.174764,-0.680717
0.975,-7.382018,-6.149333,-0.614173
0.995,-7.376261,-6.115238,-0.548653
1.015,-7.350811,-6.065752,-0.489681
1.035,-7.34031,-6.019477,-0.414746
1.055,-7.307698,-5.975425,-0.33352
1.075,-7.221169,-5.916671,-0.260751
1.095,-7.122202,-5.862435,-0.186
1.115,-7.087329,-5.844855,-0.106516
1.135,-7.129818,-5.8769,-0.020957
1.155,-7.195325,-5.953167,0.064789
1.175,-7.225915,-6.067064,0.15888
1.195,-7.196771,-6.20334,0.266201
1.215,-7.12922,-6.3127,0.354795
1.235,-7.059929,-6.38457,0.425268
1.255,-6.993307,-6.444051,0.474137
1.275,-6.914531,-6.517063,0.508011
1.295,-6.814698,-6.603138,0.521529
1.315,-6.706535,-6.684052,0.51897
1.335,-6.620734,-6.740583,0.501568
1.355,-6.575254,-6.766782,0.478573
1.375,-6.558024,-6.766915,0.458555
1.395,-6.551716,-6.751749,0.448712
1.415,-6.547952,-6.729754,0.44926
1.435,-6.545641,-6.712598,0.462965
1.455,-6.53819,-6.696012,0.479647
1.475,-6.517177,-6.670483,0.492279
1.495,-6.486052,-6.642565,0.519981
1.515,-6.444806,-6.619081,0.562181
1.535,-6.390225,-6.608849,0.62487
1.555,-6.316938,-6.633423,0.725162
1.575,-6.22112,-6.698975,0.84136
1.595,-6.126642,-6.789449,0.96392
1.615,-6.081084,-6.900053,1.115549
1.635,-6.112864,-7.039917,1.288226
1.655,-6.191273,-7.183747,1.443791
1.675,-6.264411,-7.285545,1.585847
1.695,-6.295766,-7.337377,1.734511
1.715,-6.313954,-7.354496,1.883366
1.735,-6.378033,-7.346054,2.021999
1.755,-6.487796,-7.322162,2.144816
1.775,-6.606046,-7.294142,2.253508
1.795,-6.694561,-7.273623,2.348814
1.815,-6.768613,-7.281624,2.398264
1.835,-6.842709,-7.310607,2.383825
1.855,-6.904674,-7.324244,2.330915
1.875,-6.95096,-7.30625,2.282812
1.895,-6.993201,-7.261028,2.237605
1.915,-7.036363,-7.188276,2.180543
1.935,-7.094046,-7.098789,2.125219
1.955,-7.148356,-6.999728,2.055763
1.975,-7.149847,-6.874336,1.952032
1.995,-7.06395,-6.704741,1.868531
2.015,-6.893661,-6.466071,1.769432
2.035,-6.726305,-6.035736,1.355444
2.055,-6.791595,-5.299388,0.160247
2.075,-7.002246,-4.710297,-0.730373
2.095,-7.142709,-4.721811,0.6461
2.115,-5.727527,-6.02229,3.976119
2.135,-2.236604,-7.114021,3.769404
2.155,3.603579,-4.680778,-0.686343
2.175,11.41731,1.21679,-2.949523
2.195,10.28574,6.28105,-1.393215
2.215,3.632384,6.096249,3.348938
2.235,-5.646327,4.098671,0.991561
2.255,-14.01215,-0.725493,-2.194673
2.275,-8.826447,-15.03673,4.772284
2.295,-1.642165,-43.56338,14.94827
2.315,-2.145352,-23.23459,7.970723
2.335,3.108186,-3.277422,7.130427
2.355,7.173574,8.776809,6.253983
2.375,6.1886,8.896924,6.379427
2.395,4.308442,6.526,5.757257
2.415,3.17337,4.658139,4.856035
2.435,2.561921,3.03467,4.010221
2.455,1.95033,1.972073,3.430935
2.475,1.114395,1.881377,3.18715
2.495,0.291803,2.282809,3.231057
2.515,0.004497,2.55236,3.406812
2.535,0.18704,2.073939,3.57541
2.555,0.776989,0.929481,4.145503
2.575,1.690895,-0.509434,5.365633
2.677,1.771407,-0.94663,5.901696
2.697,1.841208,-1.412444,6.160168
2.717,1.934253,-1.659499,6.314851
2.737,2.030045,-1.718842,6.446747
2.757,2.101011,-1.667639,6.565712
2.777,2.164571,-1.614734,6.644896
2.797,2.26807,-1.630772,6.697607
2.817,2.394321,-1.699619,6.767291
2.837,2.471347,-1.809518,6.883883
2.857,2.497912,-1.93795,7.042408
2.877,2.540146,-2.058875,7.227804
2.897,2.605924,-2.180851,7.431216
2.917,2.656779,-2.323988,7.614919
2.937,2.649988,-2.489403,7.752215
2.957,2.578364,-2.634418,7.872471
2.977,2.481852,-2.725095,7.996173
2.997,2.408849,-2.804827,8.100763
3.017,2.365412,-2.898636,8.166081
3.037,2.338527,-3.016641,8.209054
3.057,2.299814,-3.195123,8.241974
3.077,2.235808,-3.436837,8.274972
3.097,2.179133,-3.652067,8.306135
3.117,2.146756,-3.76509,8.3569
3.137,2.142191,-3.798106,8.415982
3.157,2.155952,-3.79871,8.48291
3.177,2.176632,-3.785369,8.546496
3.197,2.191803,-3.771409,8.604572
3.217,2.19961,-3.765666,8.641497
3.237,2.218074,-3.747407,8.659628
3.257,2.248563,-3.722065,8.665592
3.277,2.285399,-3.706399,8.667562
3.297,2.331569,-3.699871,8.67631
3.317,2.379016,-3.72194,8.691987
3.337,2.426413,-3.782733,8.705753
3.357,2.463339,-3.875455,8.715898
3.377,2.485803,-3.964694,8.72897
3.397,2.497715,-4.02216,8.749383
3.417,2.503467,-4.049787,8.771274
3.437,2.51112,-4.057977,8.789791
3.457,2.524944,-4.051948,8.808341
3.477,2.53857,-4.034807,8.831573
3.497,2.546664,-4.012892,8.862091
3.517,2.548524,-3.989341,8.897521
3.537,2.545855,-3.962716,8.936503
3.557,2.540279,-3.939693,8.974294
3.577,2.53672,-3.928457,9.001753
3.597,2.53759,-3.926778,9.018014
3.617,2.541369,-3.933303,9.029353
3.637,2.545197,-3.947457,9.040889
3.657,2.550564,-3.971072,9.050011
3.677,2.558069,-3.999093,9.057669
3.697,2.565733,-4.022292,9.065171
3.717,2.573077,-4.037823,9.072163
3.737,2.581046,-4.052075,9.075129
3.757,2.591676,-4.067891,9.075407
3.777,2.602824,-4.077911,9.078978
3.797,2.611479,-4.080057,9.090732
3.817,2.618051,-4.080411,9.106236
3.837,2.62367,-4.083325,9.12017
3.857,2.627781,-4.084736,9.132077
3.877,2.628978,-4.083129,9.14328
3.897,2.628354,-4.081919,9.153897
3.917,2.629665,-4.08323,9.163774
3.937,2.632856,-4.082934,9.176389
3.957,2.635158,-4.079768,9.19195
3.977,2.637233,-4.076051,9.208252
3.997,2.639742,-4.075116,9.219059
4.017,2.644706,-4.079048,9.223487
4.037,2.650315,-4.084661,9.226309
4.057,2.653707,-4.091135,9.229121
4.077,2.656276,-4.099665,9.2316
4.097,2.660962,-4.112239,9.232644
4.117,2.666162,-4.126854,9.234125
4.137,2.66958,-4.137175,9.237531
4.157,2.673495,-4.139775,9.241902
4.177,2.678062,-4.136744,9.24897
4.197,2.681939,-4.133154,9.256817
4.217,2.684847,-4.131368,9.263984
4.237,2.686854,-4.130826,9.270784
4.257,2.687762,-4.133122,9.276834
4.277,2.689582,-4.136979,9.281444
4.297,2.691738,-4.141802,9.285509
4.317,2.694283,-4.146887,9.290025
4.337,2.696829,-4.150968,9.294287
4.357,2.699129,-4.154426,9.298747
4.377,2.700857,-4.157146,9.303668
4.397,2.702332,-4.158784,9.30827
4.417,2.703921,-4.158351,9.313089
4.437,2.705001,-4.156454,9.31897
4.457,2.70591,-4.155124,9.325267
4.477,2.706856,-4.156004,9.330848
4.497,2.708349,-4.15702,9.335573
4.517,2.710374,-4.15751,9.339152
4.537,2.712438,-4.158297,9.342773
4.557,2.71432,-4.15952,9.346465
4.577,2.715834,-4.160954,9.350806
4.597,2.717587,-4.161997,9.35475
4.617,2.719007,-4.163546,9.358517
4.637,2.720106,-4.165378,9.361727
4.657,2.721286,-4.166881,9.364661
4.748,2.722729,-4.16835,9.367968
4.768,2.724452,-4.169054,9.371001
4.788,2.725579,-4.169407,9.37417
4.808,2.727013,-4.169725,9.377669
4.828,2.728719,-4.170281,9.381208
4.848,2.729771,-4.171068,9.385038
4.868,2.730457,-4.172077,9.38813
4.888,2.730934,-4.17296,9.39075
4.908,2.73162,-4.173118,9.393289
4.928,2.732364,-4.17229,9.396287
4.948,2.733004,-4.17066,9.400451
4.968,2.733974,-4.169595,9.405173
4.988,2.735341,-4.168828,9.409078
5.008,2.736167,-4.168225,9.411217
5.028,2.73677,-4.169803,9.41241
5.048,2.737893,-4.174967,9.412248
5.068,2.739627,-4.181073,9.412443
5.088,2.74168,-4.184842,9.413963
5.108,2.743472,-4.186672,9.416646
5.128,2.745127,-4.188404,9.419182
5.148,2.74643,-4.190669,9.421159
5.168,2.747026,-4.192145,9.422711
5.188,2.747592,-4.192099,9.42462
5.208,2.74808,-4.1921,9.42674
5.228,2.748827,-4.193035,9.428983
5.248,2.749805,-4.194823,9.431227
5.268,2.750798,-4.196281,9.433281
5.288,2.752045,-4.198085,9.434477
5.308,2.753566,-4.200636,9.43547
5.328,2.754761,-4.203617,9.436644
5.348,2.75513,-4.206352,9.437686
5.368,2.755974,-4.208558,9.43879
5.388,2.757982,-4.209783,9.439117
5.408,2.760258,-4.210876,9.439561
5.428,2.762416,-4.212462,9.44012
5.448,2.765677,-4.214415,9.439955
5.468,2.769624,-4.217449,9.43936
5.488,2.769844,-4.222488,9.440112
5.508,2.766446,-4.22628,9.442293
5.528,2.761982,-4.227017,9.445649
5.548,2.758974,-4.227292,9.448924
5.568,2.758535,-4.228043,9.452549
5.588,2.756831,-4.228475,9.456952
5.608,2.752606,-4.225216,9.462364
5.628,2.748687,-4.217153,9.467818
5.648,2.746196,-4.207375,9.472835
5.668,2.74428,-4.198222,9.477633
5.688,2.741545,-4.189399,9.483246
5.708,2.737641,-4.181048,9.49067
5.728,2.73423,-4.172876,9.498475
5.748,2.732841,-4.165265,9.505771
5.768,2.731633,-4.160172,9.514094
5.788,2.72948,-4.156829,9.521545
5.808,2.726032,-4.152539,9.526958
5.828,2.721301,-4.146328,9.532102
5.848,2.716498,-4.13812,9.537768
5.868,2.712868,-4.126834,9.544312
5.888,2.709585,-4.113554,9.551077
5.908,2.70703,-4.101077,9.558397
5.928,2.705769,-4.092891,9.564351
5.948,2.703587,-4.091322,9.569336
5.968,2.69786,-4.095468,9.573696
5.988,2.690609,-4.100123,9.577822
6.008,2.685514,-4.10205,9.580756
6.028,2.685163,-4.100151,9.581985
6.048,2.69171,-4.095924,9.582293
6.068,2.69824,-4.094469,9.583842
6.088,2.697642,-4.099038,9.587339
6.108,2.694943,-4.106578,9.589772
6.128,2.6916,-4.11038,9.58981
6.148,2.687668,-4.106194,9.589417
6.168,2.683537,-4.100471,9.591038
6.188,2.681481,-4.098851,9.592763
6.208,2.680859,-4.098372,9.593441
6.228,2.678136,-4.094043,9.595046
6.248,2.677451,-4.081234,9.600466
6.268,2.675672,-4.069751,9.609207
6.288,2.676401,-4.064033,9.616784
6.308,2.681647,-4.062993,9.622657
6.328,2.683992,-4.065458,9.626532
6.348,2.681166,-4.069479,9.627471
6.368,2.677339,-4.073963,9.624498
6.388,2.679128,-4.075768,9.620311
6.408,2.681642,-4.078083,9.619445
6.428,2.681808,-4.084061,9.623137
6.448,2.68068,-4.090529,9.62794
6.468,2.680425,-4.092241,9.631164
6.488,2.679286,-4.092211,9.632224
6.508,2.674472,-4.090314,9.63404
6.528,2.670041,-4.084151,9.63682
6.548,2.667594,-4.07362,9.638997
6.568,2.666991,-4.059628,9.643116
6.588,2.664886,-4.048959,9.649611
6.608,2.662442,-4.042012,9.655156
6.628,2.663088,-4.03535,9.65861
6.648,2.665259,-4.02569,9.662293
6.668,2.662644,-4.020484,9.665628
6.688,2.65814,-4.01964,9.667302
6.708,2.654423,-4.017536,9.670276
6.728,2.658477,-4.022659,9.6731
